SubID,Trial,Task,Difficulty,StimColor,RT,Accuracy,Year,StimLoc
135ed78591,2,ChoiceTask,Easy,Red,566,Correct,2014,0
135ed78591,3,ChoiceTask,Easy,Yellow,666,Correct,2014,0
135ed78591,4,ChoiceTask,Easy,Yellow,700,Correct,2014,0
135ed78591,5,ChoiceTask,Easy,Red,683,Correct,2014,0
135ed78591,6,ChoiceTask,Easy,Red,516,Correct,2014,0
135ed78591,7,ChoiceTask,Easy,Yellow,700,Correct,2014,0
135ed78591,8,ChoiceTask,Easy,Red,583,Correct,2014,0
135ed78591,9,ChoiceTask,Easy,Blue,700,Correct,2014,0
135ed78591,10,ChoiceTask,Easy,Yellow,916,Correct,2014,0
135ed78591,11,ChoiceTask,Easy,Yellow,700,Correct,2014,0
135ed78591,12,ChoiceTask,Easy,Yellow,650,Correct,2014,0
135ed78591,13,ChoiceTask,Easy,Green,833,Correct,2014,0
135ed78591,14,ChoiceTask,Easy,Blue,650,Correct,2014,0
135ed78591,15,ChoiceTask,Easy,Blue,616,Correct,2014,0
135ed78591,16,ChoiceTask,Easy,Blue,600,Correct,2014,0
135ed78591,17,ChoiceTask,Easy,Blue,700,Correct,2014,0
135ed78591,18,ChoiceTask,Easy,Green,716,Correct,2014,0
135ed78591,19,ChoiceTask,Easy,Green,516,Correct,2014,0
135ed78591,20,ChoiceTask,Easy,Blue,716,Correct,2014,0
135ed78591,21,ChoiceTask,Easy,Yellow,700,Correct,2014,0
135ed78591,22,ChoiceTask,Easy,Red,550,Correct,2014,0
135ed78591,23,ChoiceTask,Easy,Red,600,Correct,2014,0
135ed78591,25,ChoiceTask,Easy,Yellow,800,Correct,2014,0
135ed78591,26,ChoiceTask,Easy,Green,650,Correct,2014,0
135ed78591,27,ChoiceTask,Easy,Red,566,Correct,2014,0
135ed78591,28,ChoiceTask,Easy,Green,616,Correct,2014,0
135ed78591,29,ChoiceTask,Easy,Blue,466,Correct,2014,0
2aacd6089c,2,ChoiceTask,Easy,Green,575,Correct,2015,0
2aacd6089c,2,ChoiceTask,Easy,Blue,435,Correct,2015,0
2aacd6089c,2,ChoiceTask,Easy,Green,575,Correct,2015,0
2aacd6089c,2,ChoiceTask,Easy,Blue,435,Correct,2015,0
2aacd6089c,2,ChoiceTask,Easy,Blue,550,Correct,2015,0
2aacd6089c,2,ChoiceTask,Easy,Yellow,515,Correct,2015,0
2aacd6089c,3,ChoiceTask,Easy,Red,485,Correct,2015,0
2aacd6089c,3,ChoiceTask,Easy,Red,556,Correct,2015,0
2aacd6089c,3,ChoiceTask,Easy,Red,485,Correct,2015,0
2aacd6089c,3,ChoiceTask,Easy,Red,556,Correct,2015,0
2aacd6089c,3,ChoiceTask,Easy,Yellow,606,Correct,2015,0
2aacd6089c,3,ChoiceTask,Easy,Red,550,Correct,2015,0
2aacd6089c,4,ChoiceTask,Easy,Red,523,Correct,2015,0
2aacd6089c,4,ChoiceTask,Easy,Red,523,Correct,2015,0
2aacd6089c,4,ChoiceTask,Easy,Green,784,Correct,2015,0
2aacd6089c,5,ChoiceTask,Easy,Red,506,Correct,2015,0
2aacd6089c,5,ChoiceTask,Easy,Blue,551,Correct,2015,0
2aacd6089c,5,ChoiceTask,Easy,Red,506,Correct,2015,0
2aacd6089c,5,ChoiceTask,Easy,Blue,551,Correct,2015,0
2aacd6089c,5,ChoiceTask,Easy,Green,556,Correct,2015,0
2aacd6089c,5,ChoiceTask,Easy,Yellow,528,Correct,2015,0
2aacd6089c,6,ChoiceTask,Easy,Yellow,585,Correct,2015,0
2aacd6089c,6,ChoiceTask,Easy,Green,638,Correct,2015,0
2aacd6089c,6,ChoiceTask,Easy,Yellow,585,Correct,2015,0
2aacd6089c,6,ChoiceTask,Easy,Green,638,Correct,2015,0
2aacd6089c,6,ChoiceTask,Easy,Blue,418,Correct,2015,0
2aacd6089c,6,ChoiceTask,Easy,Red,536,Correct,2015,0
2aacd6089c,7,ChoiceTask,Easy,Blue,690,Correct,2015,0
2aacd6089c,7,ChoiceTask,Easy,Green,493,Correct,2015,0
2aacd6089c,7,ChoiceTask,Easy,Blue,690,Correct,2015,0
2aacd6089c,7,ChoiceTask,Easy,Green,493,Correct,2015,0
2aacd6089c,7,ChoiceTask,Easy,Yellow,555,Correct,2015,0
2aacd6089c,7,ChoiceTask,Easy,Green,587,Correct,2015,0
2aacd6089c,8,ChoiceTask,Easy,Yellow,611,Correct,2015,0
2aacd6089c,8,ChoiceTask,Easy,Red,555,Correct,2015,0
2aacd6089c,8,ChoiceTask,Easy,Yellow,611,Correct,2015,0
2aacd6089c,8,ChoiceTask,Easy,Red,555,Correct,2015,0
2aacd6089c,8,ChoiceTask,Easy,Yellow,580,Correct,2015,0
2aacd6089c,8,ChoiceTask,Easy,Blue,461,Correct,2015,0
2aacd6089c,9,ChoiceTask,Easy,Green,641,Correct,2015,0
2aacd6089c,9,ChoiceTask,Easy,Yellow,630,Correct,2015,0
2aacd6089c,9,ChoiceTask,Easy,Green,641,Correct,2015,0
2aacd6089c,9,ChoiceTask,Easy,Yellow,630,Correct,2015,0
2aacd6089c,9,ChoiceTask,Easy,Blue,535,Correct,2015,0
2aacd6089c,10,ChoiceTask,Easy,Red,402,Correct,2015,0
2aacd6089c,10,ChoiceTask,Easy,Yellow,418,Correct,2015,0
2aacd6089c,10,ChoiceTask,Easy,Red,402,Correct,2015,0
2aacd6089c,10,ChoiceTask,Easy,Yellow,418,Correct,2015,0
2aacd6089c,10,ChoiceTask,Easy,Yellow,747,Correct,2015,0
2aacd6089c,10,ChoiceTask,Easy,Blue,524,Correct,2015,0
2aacd6089c,11,ChoiceTask,Easy,Yellow,609,Correct,2015,0
2aacd6089c,11,ChoiceTask,Easy,Yellow,439,Correct,2015,0
2aacd6089c,11,ChoiceTask,Easy,Yellow,609,Correct,2015,0
2aacd6089c,11,ChoiceTask,Easy,Yellow,439,Correct,2015,0
2aacd6089c,11,ChoiceTask,Easy,Blue,627,Correct,2015,0
2aacd6089c,11,ChoiceTask,Easy,Yellow,590,Correct,2015,0
2aacd6089c,12,ChoiceTask,Easy,Yellow,420,Correct,2015,0
2aacd6089c,12,ChoiceTask,Easy,Red,463,Correct,2015,0
2aacd6089c,12,ChoiceTask,Easy,Yellow,420,Correct,2015,0
2aacd6089c,12,ChoiceTask,Easy,Red,463,Correct,2015,0
2aacd6089c,12,ChoiceTask,Easy,Yellow,584,Correct,2015,0
2aacd6089c,12,ChoiceTask,Easy,Red,602,Correct,2015,0
2aacd6089c,13,ChoiceTask,Easy,Green,610,Correct,2015,0
2aacd6089c,13,ChoiceTask,Easy,Green,595,Correct,2015,0
2aacd6089c,13,ChoiceTask,Easy,Green,610,Correct,2015,0
2aacd6089c,13,ChoiceTask,Easy,Green,595,Correct,2015,0
2aacd6089c,13,ChoiceTask,Easy,Red,452,Correct,2015,0
2aacd6089c,13,ChoiceTask,Easy,Blue,608,Correct,2015,0
2aacd6089c,14,ChoiceTask,Easy,Blue,381,Correct,2015,0
2aacd6089c,14,ChoiceTask,Easy,Blue,440,Correct,2015,0
2aacd6089c,14,ChoiceTask,Easy,Blue,381,Correct,2015,0
2aacd6089c,14,ChoiceTask,Easy,Blue,440,Correct,2015,0
2aacd6089c,14,ChoiceTask,Easy,Red,581,Correct,2015,0
2aacd6089c,14,ChoiceTask,Easy,Yellow,493,Correct,2015,0
2aacd6089c,15,ChoiceTask,Easy,Blue,521,Correct,2015,0
2aacd6089c,15,ChoiceTask,Easy,Yellow,752,Correct,2015,0
2aacd6089c,15,ChoiceTask,Easy,Blue,521,Correct,2015,0
2aacd6089c,15,ChoiceTask,Easy,Yellow,752,Correct,2015,0
2aacd6089c,15,ChoiceTask,Easy,Green,468,Correct,2015,0
2aacd6089c,15,ChoiceTask,Easy,Blue,601,Correct,2015,0
2aacd6089c,16,ChoiceTask,Easy,Red,389,Correct,2015,0
2aacd6089c,16,ChoiceTask,Easy,Green,563,Correct,2015,0
2aacd6089c,16,ChoiceTask,Easy,Red,389,Correct,2015,0
2aacd6089c,16,ChoiceTask,Easy,Green,563,Correct,2015,0
2aacd6089c,16,ChoiceTask,Easy,Blue,533,Correct,2015,0
2aacd6089c,16,ChoiceTask,Easy,Yellow,618,Correct,2015,0
2aacd6089c,17,ChoiceTask,Easy,Green,644,Correct,2015,0
2aacd6089c,17,ChoiceTask,Easy,Green,470,Correct,2015,0
2aacd6089c,17,ChoiceTask,Easy,Green,644,Correct,2015,0
2aacd6089c,17,ChoiceTask,Easy,Green,470,Correct,2015,0
2aacd6089c,17,ChoiceTask,Easy,Red,607,Correct,2015,0
2aacd6089c,17,ChoiceTask,Easy,Red,552,Correct,2015,0
2aacd6089c,18,ChoiceTask,Easy,Red,582,Correct,2015,0
2aacd6089c,18,ChoiceTask,Easy,Yellow,585,Correct,2015,0
2aacd6089c,18,ChoiceTask,Easy,Red,582,Correct,2015,0
2aacd6089c,18,ChoiceTask,Easy,Yellow,585,Correct,2015,0
2aacd6089c,18,ChoiceTask,Easy,Red,474,Correct,2015,0
2aacd6089c,18,ChoiceTask,Easy,Blue,552,Correct,2015,0
2aacd6089c,19,ChoiceTask,Easy,Blue,719,Correct,2015,0
2aacd6089c,19,ChoiceTask,Easy,Red,463,Correct,2015,0
2aacd6089c,19,ChoiceTask,Easy,Blue,719,Correct,2015,0
2aacd6089c,19,ChoiceTask,Easy,Red,463,Correct,2015,0
2aacd6089c,19,ChoiceTask,Easy,Green,646,Correct,2015,0
2aacd6089c,19,ChoiceTask,Easy,Green,568,Correct,2015,0
2aacd6089c,20,ChoiceTask,Easy,Green,611,Correct,2015,0
2aacd6089c,20,ChoiceTask,Easy,Green,611,Correct,2015,0
2aacd6089c,20,ChoiceTask,Easy,Red,522,Correct,2015,0
2aacd6089c,20,ChoiceTask,Easy,Red,485,Correct,2015,0
2aacd6089c,21,ChoiceTask,Easy,Yellow,585,Correct,2015,0
2aacd6089c,21,ChoiceTask,Easy,Green,652,Correct,2015,0
2aacd6089c,21,ChoiceTask,Easy,Yellow,585,Correct,2015,0
2aacd6089c,21,ChoiceTask,Easy,Green,652,Correct,2015,0
2aacd6089c,21,ChoiceTask,Easy,Red,467,Correct,2015,0
2aacd6089c,21,ChoiceTask,Easy,Yellow,771,Correct,2015,0
2aacd6089c,22,ChoiceTask,Easy,Blue,518,Correct,2015,0
2aacd6089c,22,ChoiceTask,Easy,Blue,518,Correct,2015,0
2aacd6089c,22,ChoiceTask,Easy,Yellow,518,Correct,2015,0
2aacd6089c,22,ChoiceTask,Easy,Green,548,Correct,2015,0
2aacd6089c,23,ChoiceTask,Easy,Red,518,Correct,2015,0
2aacd6089c,23,ChoiceTask,Easy,Yellow,608,Correct,2015,0
2aacd6089c,23,ChoiceTask,Easy,Red,518,Correct,2015,0
2aacd6089c,23,ChoiceTask,Easy,Yellow,608,Correct,2015,0
2aacd6089c,23,ChoiceTask,Easy,Red,629,Correct,2015,0
2aacd6089c,23,ChoiceTask,Easy,Yellow,471,Correct,2015,0
2aacd6089c,24,ChoiceTask,Easy,Yellow,434,Correct,2015,0
2aacd6089c,24,ChoiceTask,Easy,Green,634,Correct,2015,0
2aacd6089c,24,ChoiceTask,Easy,Yellow,434,Correct,2015,0
2aacd6089c,24,ChoiceTask,Easy,Green,634,Correct,2015,0
2aacd6089c,24,ChoiceTask,Easy,Blue,584,Correct,2015,0
2aacd6089c,24,ChoiceTask,Easy,Red,484,Correct,2015,0
2aacd6089c,25,ChoiceTask,Easy,Red,485,Correct,2015,0
2aacd6089c,25,ChoiceTask,Easy,Green,567,Correct,2015,0
2aacd6089c,25,ChoiceTask,Easy,Red,485,Correct,2015,0
2aacd6089c,25,ChoiceTask,Easy,Green,567,Correct,2015,0
2aacd6089c,25,ChoiceTask,Easy,Green,552,Correct,2015,0
2aacd6089c,25,ChoiceTask,Easy,Yellow,523,Correct,2015,0
2aacd6089c,26,ChoiceTask,Easy,Yellow,552,Correct,2015,0
2aacd6089c,26,ChoiceTask,Easy,Green,548,Correct,2015,0
2aacd6089c,26,ChoiceTask,Easy,Yellow,552,Correct,2015,0
2aacd6089c,26,ChoiceTask,Easy,Green,548,Correct,2015,0
2aacd6089c,26,ChoiceTask,Easy,Green,446,Correct,2015,0
2aacd6089c,26,ChoiceTask,Easy,Red,481,Correct,2015,0
2aacd6089c,27,ChoiceTask,Easy,Blue,572,Correct,2015,0
2aacd6089c,27,ChoiceTask,Easy,Blue,402,Correct,2015,0
2aacd6089c,27,ChoiceTask,Easy,Blue,572,Correct,2015,0
2aacd6089c,27,ChoiceTask,Easy,Blue,402,Correct,2015,0
2aacd6089c,27,ChoiceTask,Easy,Yellow,505,Correct,2015,0
2aacd6089c,27,ChoiceTask,Easy,Yellow,568,Correct,2015,0
2aacd6089c,28,ChoiceTask,Easy,Blue,535,Correct,2015,0
2aacd6089c,28,ChoiceTask,Easy,Red,428,Correct,2015,0
2aacd6089c,28,ChoiceTask,Easy,Blue,535,Correct,2015,0
2aacd6089c,28,ChoiceTask,Easy,Red,428,Correct,2015,0
2aacd6089c,28,ChoiceTask,Easy,Blue,614,Correct,2015,0
2aacd6089c,28,ChoiceTask,Easy,Red,518,Correct,2015,0
2aacd6089c,29,ChoiceTask,Easy,Red,598,Correct,2015,0
2aacd6089c,29,ChoiceTask,Easy,Blue,606,Correct,2015,0
2aacd6089c,29,ChoiceTask,Easy,Red,598,Correct,2015,0
2aacd6089c,29,ChoiceTask,Easy,Blue,606,Correct,2015,0
2aacd6089c,29,ChoiceTask,Easy,Green,607,Correct,2015,0
2aacd6089c,30,ChoiceTask,Easy,Green,418,Correct,2015,0
2aacd6089c,30,ChoiceTask,Easy,Red,568,Correct,2015,0
2aacd6089c,30,ChoiceTask,Easy,Green,418,Correct,2015,0
2aacd6089c,30,ChoiceTask,Easy,Red,568,Correct,2015,0
2aacd6089c,30,ChoiceTask,Easy,Yellow,652,Correct,2015,0
2aacd6089c,30,ChoiceTask,Easy,Green,476,Correct,2015,0
2aacd6089c,31,ChoiceTask,Easy,Green,436,Correct,2015,0
2aacd6089c,31,ChoiceTask,Easy,Red,526,Correct,2015,0
2aacd6089c,31,ChoiceTask,Easy,Green,436,Correct,2015,0
2aacd6089c,31,ChoiceTask,Easy,Red,526,Correct,2015,0
2aacd6089c,31,ChoiceTask,Easy,Yellow,562,Correct,2015,0
2aacd6089c,31,ChoiceTask,Easy,Blue,447,Correct,2015,0
2aacd6089c,32,ChoiceTask,Easy,Yellow,565,Correct,2015,0
2aacd6089c,32,ChoiceTask,Easy,Blue,548,Correct,2015,0
2aacd6089c,32,ChoiceTask,Easy,Yellow,565,Correct,2015,0
2aacd6089c,32,ChoiceTask,Easy,Blue,548,Correct,2015,0
2aacd6089c,32,ChoiceTask,Easy,Blue,502,Correct,2015,0
2aacd6089c,32,ChoiceTask,Easy,Green,649,Correct,2015,0
2aacd6089c,33,ChoiceTask,Easy,Green,642,Correct,2015,0
2aacd6089c,33,ChoiceTask,Easy,Blue,560,Correct,2015,0
2aacd6089c,33,ChoiceTask,Easy,Green,642,Correct,2015,0
2aacd6089c,33,ChoiceTask,Easy,Blue,560,Correct,2015,0
2aacd6089c,33,ChoiceTask,Easy,Red,506,Correct,2015,0
2aacd6089c,33,ChoiceTask,Easy,Red,451,Correct,2015,0
2aacd6089c,34,ChoiceTask,Easy,Blue,635,Correct,2015,0
2aacd6089c,34,ChoiceTask,Easy,Red,509,Correct,2015,0
2aacd6089c,34,ChoiceTask,Easy,Blue,635,Correct,2015,0
2aacd6089c,34,ChoiceTask,Easy,Red,509,Correct,2015,0
2aacd6089c,34,ChoiceTask,Easy,Green,543,Correct,2015,0
2aacd6089c,34,ChoiceTask,Easy,Blue,650,Correct,2015,0
2aacd6089c,35,ChoiceTask,Easy,Red,655,Correct,2015,0
2aacd6089c,35,ChoiceTask,Easy,Yellow,390,Correct,2015,0
2aacd6089c,35,ChoiceTask,Easy,Red,655,Correct,2015,0
2aacd6089c,35,ChoiceTask,Easy,Yellow,390,Correct,2015,0
2aacd6089c,35,ChoiceTask,Easy,Red,521,Correct,2015,0
2aacd6089c,35,ChoiceTask,Easy,Red,552,Correct,2015,0
2aacd6089c,36,ChoiceTask,Easy,Green,497,Correct,2015,0
2aacd6089c,36,ChoiceTask,Easy,Yellow,391,Correct,2015,0
2aacd6089c,36,ChoiceTask,Easy,Green,497,Correct,2015,0
2aacd6089c,36,ChoiceTask,Easy,Yellow,391,Correct,2015,0
2aacd6089c,36,ChoiceTask,Easy,Blue,523,Correct,2015,0
2aacd6089c,36,ChoiceTask,Easy,Yellow,769,Correct,2015,0
2aacd6089c,37,ChoiceTask,Easy,Red,535,Correct,2015,0
2aacd6089c,37,ChoiceTask,Easy,Red,530,Correct,2015,0
2aacd6089c,37,ChoiceTask,Easy,Red,535,Correct,2015,0
2aacd6089c,37,ChoiceTask,Easy,Red,530,Correct,2015,0
2aacd6089c,37,ChoiceTask,Easy,Blue,594,Correct,2015,0
2aacd6089c,37,ChoiceTask,Easy,Green,569,Correct,2015,0
2aacd6089c,38,ChoiceTask,Easy,Green,355,Correct,2015,0
2aacd6089c,38,ChoiceTask,Easy,Green,355,Correct,2015,0
2aacd6089c,38,ChoiceTask,Easy,Green,611,Correct,2015,0
2aacd6089c,38,ChoiceTask,Easy,Blue,568,Correct,2015,0
2aacd6089c,39,ChoiceTask,Easy,Blue,585,Correct,2015,0
2aacd6089c,39,ChoiceTask,Easy,Yellow,514,Correct,2015,0
2aacd6089c,39,ChoiceTask,Easy,Blue,585,Correct,2015,0
2aacd6089c,39,ChoiceTask,Easy,Yellow,514,Correct,2015,0
2aacd6089c,39,ChoiceTask,Easy,Yellow,529,Correct,2015,0
2aacd6089c,39,ChoiceTask,Easy,Blue,518,Correct,2015,0
2aacd6089c,40,ChoiceTask,Easy,Blue,586,Correct,2015,0
2aacd6089c,40,ChoiceTask,Easy,Blue,586,Correct,2015,0
2aacd6089c,40,ChoiceTask,Easy,Red,502,Correct,2015,0
2aacd6089c,40,ChoiceTask,Easy,Blue,501,Correct,2015,0
2aacd6089c,41,ChoiceTask,Easy,Blue,607,Correct,2015,0
2aacd6089c,41,ChoiceTask,Easy,Red,501,Correct,2015,0
2aacd6089c,41,ChoiceTask,Easy,Blue,607,Correct,2015,0
2aacd6089c,41,ChoiceTask,Easy,Red,501,Correct,2015,0
2aacd6089c,41,ChoiceTask,Easy,Yellow,543,Correct,2015,0
2aacd6089c,41,ChoiceTask,Easy,Yellow,553,Correct,2015,0
2aacd6089c,42,ChoiceTask,Easy,Yellow,559,Correct,2015,0
2aacd6089c,42,ChoiceTask,Easy,Red,357,Correct,2015,0
2aacd6089c,42,ChoiceTask,Easy,Yellow,559,Correct,2015,0
2aacd6089c,42,ChoiceTask,Easy,Red,357,Correct,2015,0
2aacd6089c,42,ChoiceTask,Easy,Red,512,Correct,2015,0
2aacd6089c,42,ChoiceTask,Easy,Green,535,Correct,2015,0
2aacd6089c,43,ChoiceTask,Easy,Red,532,Correct,2015,0
2aacd6089c,43,ChoiceTask,Easy,Yellow,617,Correct,2015,0
2aacd6089c,43,ChoiceTask,Easy,Red,532,Correct,2015,0
2aacd6089c,43,ChoiceTask,Easy,Yellow,617,Correct,2015,0
2aacd6089c,43,ChoiceTask,Easy,Yellow,589,Correct,2015,0
2aacd6089c,43,ChoiceTask,Easy,Red,561,Correct,2015,0
2aacd6089c,44,ChoiceTask,Easy,Yellow,747,Correct,2015,0
2aacd6089c,44,ChoiceTask,Easy,Yellow,376,Correct,2015,0
2aacd6089c,44,ChoiceTask,Easy,Yellow,747,Correct,2015,0
2aacd6089c,44,ChoiceTask,Easy,Yellow,376,Correct,2015,0
2aacd6089c,44,ChoiceTask,Easy,Blue,528,Correct,2015,0
2aacd6089c,44,ChoiceTask,Easy,Blue,568,Correct,2015,0
2aacd6089c,45,ChoiceTask,Easy,Green,606,Correct,2015,0
2aacd6089c,45,ChoiceTask,Easy,Blue,445,Correct,2015,0
2aacd6089c,45,ChoiceTask,Easy,Green,606,Correct,2015,0
2aacd6089c,45,ChoiceTask,Easy,Blue,445,Correct,2015,0
2aacd6089c,45,ChoiceTask,Easy,Red,465,Correct,2015,0
2aacd6089c,45,ChoiceTask,Easy,Blue,568,Correct,2015,0
2aacd6089c,46,ChoiceTask,Easy,Blue,508,Correct,2015,0
2aacd6089c,46,ChoiceTask,Easy,Green,389,Correct,2015,0
2aacd6089c,46,ChoiceTask,Easy,Blue,508,Correct,2015,0
2aacd6089c,46,ChoiceTask,Easy,Green,389,Correct,2015,0
2aacd6089c,46,ChoiceTask,Easy,Blue,582,Correct,2015,0
2aacd6089c,46,ChoiceTask,Easy,Blue,434,Correct,2015,0
2aacd6089c,47,ChoiceTask,Easy,Green,585,Correct,2015,0
2aacd6089c,47,ChoiceTask,Easy,Blue,644,Correct,2015,0
2aacd6089c,47,ChoiceTask,Easy,Green,585,Correct,2015,0
2aacd6089c,47,ChoiceTask,Easy,Blue,644,Correct,2015,0
2aacd6089c,47,ChoiceTask,Easy,Blue,473,Correct,2015,0
2aacd6089c,47,ChoiceTask,Easy,Green,483,Correct,2015,0
2aacd6089c,48,ChoiceTask,Easy,Yellow,597,Correct,2015,0
2aacd6089c,48,ChoiceTask,Easy,Yellow,597,Correct,2015,0
2aacd6089c,48,ChoiceTask,Easy,Green,457,Correct,2015,0
2aacd6089c,48,ChoiceTask,Easy,Red,518,Correct,2015,0
2aacd6089c,49,ChoiceTask,Easy,Green,568,Correct,2015,0
2aacd6089c,49,ChoiceTask,Easy,Blue,716,Correct,2015,0
2aacd6089c,49,ChoiceTask,Easy,Green,568,Correct,2015,0
2aacd6089c,49,ChoiceTask,Easy,Blue,716,Correct,2015,0
2aacd6089c,49,ChoiceTask,Easy,Blue,602,Correct,2015,0
2aacd6089c,49,ChoiceTask,Easy,Red,411,Correct,2015,0
2aacd6089c,50,ChoiceTask,Easy,Blue,604,Correct,2015,0
2aacd6089c,50,ChoiceTask,Easy,Red,497,Correct,2015,0
2aacd6089c,50,ChoiceTask,Easy,Blue,604,Correct,2015,0
2aacd6089c,50,ChoiceTask,Easy,Red,497,Correct,2015,0
2aacd6089c,50,ChoiceTask,Easy,Red,485,Correct,2015,0
2aacd6089c,50,ChoiceTask,Easy,Green,555,Correct,2015,0
2aacd6089c,51,ChoiceTask,Easy,Green,535,Correct,2015,0
2aacd6089c,51,ChoiceTask,Easy,Red,548,Correct,2015,0
2aacd6089c,51,ChoiceTask,Easy,Green,535,Correct,2015,0
2aacd6089c,51,ChoiceTask,Easy,Red,548,Correct,2015,0
2aacd6089c,51,ChoiceTask,Easy,Red,471,Correct,2015,0
2aacd6089c,51,ChoiceTask,Easy,Blue,502,Correct,2015,0
2aacd6089c,52,ChoiceTask,Easy,Green,555,Correct,2015,0
2aacd6089c,52,ChoiceTask,Easy,Green,452,Correct,2015,0
2aacd6089c,52,ChoiceTask,Easy,Green,555,Correct,2015,0
2aacd6089c,52,ChoiceTask,Easy,Green,452,Correct,2015,0
2aacd6089c,52,ChoiceTask,Easy,Red,437,Correct,2015,0
2aacd6089c,52,ChoiceTask,Easy,Yellow,568,Correct,2015,0
2aacd6089c,53,ChoiceTask,Easy,Red,519,Correct,2015,0
2aacd6089c,53,ChoiceTask,Easy,Blue,467,Correct,2015,0
2aacd6089c,53,ChoiceTask,Easy,Red,519,Correct,2015,0
2aacd6089c,53,ChoiceTask,Easy,Blue,467,Correct,2015,0
2aacd6089c,53,ChoiceTask,Easy,Green,551,Correct,2015,0
2aacd6089c,53,ChoiceTask,Easy,Red,511,Correct,2015,0
2aacd6089c,54,ChoiceTask,Easy,Red,472,Correct,2015,0
2aacd6089c,54,ChoiceTask,Easy,Blue,362,Correct,2015,0
2aacd6089c,54,ChoiceTask,Easy,Red,472,Correct,2015,0
2aacd6089c,54,ChoiceTask,Easy,Blue,362,Correct,2015,0
2aacd6089c,54,ChoiceTask,Easy,Yellow,539,Correct,2015,0
2aacd6089c,54,ChoiceTask,Easy,Yellow,559,Correct,2015,0
2aacd6089c,55,ChoiceTask,Easy,Red,470,Correct,2015,0
2aacd6089c,55,ChoiceTask,Easy,Yellow,434,Correct,2015,0
2aacd6089c,55,ChoiceTask,Easy,Red,470,Correct,2015,0
2aacd6089c,55,ChoiceTask,Easy,Yellow,434,Correct,2015,0
2aacd6089c,55,ChoiceTask,Easy,Blue,465,Correct,2015,0
2aacd6089c,55,ChoiceTask,Easy,Yellow,447,Correct,2015,0
2aacd6089c,56,ChoiceTask,Easy,Blue,736,Correct,2015,0
2aacd6089c,56,ChoiceTask,Easy,Red,441,Correct,2015,0
2aacd6089c,56,ChoiceTask,Easy,Blue,736,Correct,2015,0
2aacd6089c,56,ChoiceTask,Easy,Red,441,Correct,2015,0
2aacd6089c,56,ChoiceTask,Easy,Yellow,584,Correct,2015,0
2aacd6089c,56,ChoiceTask,Easy,Green,594,Correct,2015,0
2aacd6089c,57,ChoiceTask,Easy,Yellow,569,Correct,2015,0
2aacd6089c,57,ChoiceTask,Easy,Green,618,Correct,2015,0
2aacd6089c,57,ChoiceTask,Easy,Yellow,569,Correct,2015,0
2aacd6089c,57,ChoiceTask,Easy,Green,618,Correct,2015,0
2aacd6089c,57,ChoiceTask,Easy,Red,470,Correct,2015,0
2aacd6089c,58,ChoiceTask,Easy,Red,546,Correct,2015,0
2aacd6089c,58,ChoiceTask,Easy,Green,398,Correct,2015,0
2aacd6089c,58,ChoiceTask,Easy,Red,546,Correct,2015,0
2aacd6089c,58,ChoiceTask,Easy,Green,398,Correct,2015,0
2aacd6089c,58,ChoiceTask,Easy,Green,585,Correct,2015,0
2aacd6089c,58,ChoiceTask,Easy,Green,591,Correct,2015,0
2aacd6089c,59,ChoiceTask,Easy,Yellow,619,Correct,2015,0
2aacd6089c,59,ChoiceTask,Easy,Yellow,619,Correct,2015,0
2aacd6089c,59,ChoiceTask,Easy,Green,619,Correct,2015,0
2aacd6089c,59,ChoiceTask,Easy,Blue,752,Correct,2015,0
2aacd6089c,60,ChoiceTask,Easy,Yellow,536,Correct,2015,0
2aacd6089c,60,ChoiceTask,Easy,Yellow,536,Correct,2015,0
2aacd6089c,60,ChoiceTask,Easy,Green,443,Correct,2015,0
2aacd6089c,60,ChoiceTask,Easy,Yellow,584,Correct,2015,0
41ba882231,2,ChoiceTask,Easy,Yellow,650,Correct,2014,0
41ba882231,3,ChoiceTask,Easy,Green,616,Correct,2014,0
41ba882231,4,ChoiceTask,Easy,Green,700,Correct,2014,0
41ba882231,5,ChoiceTask,Easy,Red,633,Correct,2014,0
41ba882231,6,ChoiceTask,Easy,Blue,766,Correct,2014,0
41ba882231,7,ChoiceTask,Easy,Blue,716,Correct,2014,0
41ba882231,8,ChoiceTask,Easy,Blue,533,Correct,2014,0
41ba882231,9,ChoiceTask,Easy,Blue,583,Correct,2014,0
41ba882231,10,ChoiceTask,Easy,Yellow,550,Correct,2014,0
41ba882231,11,ChoiceTask,Easy,Blue,716,Correct,2014,0
41ba882231,12,ChoiceTask,Easy,Green,700,Correct,2014,0
41ba882231,13,ChoiceTask,Easy,Yellow,566,Correct,2014,0
41ba882231,14,ChoiceTask,Easy,Red,566,Correct,2014,0
41ba882231,15,ChoiceTask,Easy,Red,466,Correct,2014,0
41ba882231,17,ChoiceTask,Easy,Green,566,Correct,2014,0
41ba882231,19,ChoiceTask,Easy,Blue,883,Correct,2014,0
41ba882231,20,ChoiceTask,Easy,Red,583,Correct,2014,0
41ba882231,21,ChoiceTask,Easy,Green,583,Correct,2014,0
41ba882231,22,ChoiceTask,Easy,Green,716,Correct,2014,0
41ba882231,23,ChoiceTask,Easy,Red,616,Correct,2014,0
41ba882231,24,ChoiceTask,Easy,Red,566,Correct,2014,0
41ba882231,25,ChoiceTask,Easy,Yellow,416,Correct,2014,0
41ba882231,26,ChoiceTask,Easy,Red,516,Correct,2014,0
41ba882231,27,ChoiceTask,Easy,Red,566,Correct,2014,0
41ba882231,28,ChoiceTask,Easy,Green,683,Correct,2014,0
41ba882231,29,ChoiceTask,Easy,Yellow,766,Correct,2014,0
578dd53ec6,2,ChoiceTask,Easy,Green,649,Correct,2015,0
578dd53ec6,2,ChoiceTask,Easy,Green,657,Correct,2015,0
578dd53ec6,2,ChoiceTask,Easy,Red,447,Correct,2015,0
578dd53ec6,2,ChoiceTask,Easy,Yellow,424,Correct,2015,0
578dd53ec6,3,ChoiceTask,Easy,Red,360,Correct,2015,0
578dd53ec6,3,ChoiceTask,Easy,Green,565,Correct,2015,0
578dd53ec6,3,ChoiceTask,Easy,Red,418,Correct,2015,0
578dd53ec6,3,ChoiceTask,Easy,Red,538,Correct,2015,0
578dd53ec6,4,ChoiceTask,Easy,Red,468,Correct,2015,0
578dd53ec6,4,ChoiceTask,Easy,Green,532,Correct,2015,0
578dd53ec6,4,ChoiceTask,Easy,Blue,497,Correct,2015,0
578dd53ec6,5,ChoiceTask,Easy,Blue,486,Correct,2015,0
578dd53ec6,5,ChoiceTask,Easy,Yellow,538,Correct,2015,0
578dd53ec6,5,ChoiceTask,Easy,Blue,456,Correct,2015,0
578dd53ec6,5,ChoiceTask,Easy,Red,463,Correct,2015,0
578dd53ec6,6,ChoiceTask,Easy,Green,380,Correct,2015,0
578dd53ec6,6,ChoiceTask,Easy,Red,484,Correct,2015,0
578dd53ec6,6,ChoiceTask,Easy,Green,514,Correct,2015,0
578dd53ec6,7,ChoiceTask,Easy,Yellow,468,Correct,2015,0
578dd53ec6,7,ChoiceTask,Easy,Blue,428,Correct,2015,0
578dd53ec6,8,ChoiceTask,Easy,Yellow,451,Correct,2015,0
578dd53ec6,8,ChoiceTask,Easy,Red,410,Correct,2015,0
578dd53ec6,8,ChoiceTask,Easy,Green,576,Correct,2015,0
578dd53ec6,9,ChoiceTask,Easy,Blue,584,Correct,2015,0
578dd53ec6,9,ChoiceTask,Easy,Red,378,Correct,2015,0
578dd53ec6,9,ChoiceTask,Easy,Yellow,451,Correct,2015,0
578dd53ec6,9,ChoiceTask,Easy,Green,426,Correct,2015,0
578dd53ec6,10,ChoiceTask,Easy,Red,367,Correct,2015,0
578dd53ec6,10,ChoiceTask,Easy,Blue,481,Correct,2015,0
578dd53ec6,10,ChoiceTask,Easy,Blue,502,Correct,2015,0
578dd53ec6,11,ChoiceTask,Easy,Blue,536,Correct,2015,0
578dd53ec6,11,ChoiceTask,Easy,Yellow,356,Correct,2015,0
578dd53ec6,11,ChoiceTask,Easy,Red,480,Correct,2015,0
578dd53ec6,11,ChoiceTask,Easy,Green,605,Correct,2015,0
578dd53ec6,12,ChoiceTask,Easy,Green,362,Correct,2015,0
578dd53ec6,12,ChoiceTask,Easy,Red,489,Correct,2015,0
578dd53ec6,12,ChoiceTask,Easy,Yellow,512,Correct,2015,0
578dd53ec6,12,ChoiceTask,Easy,Green,457,Correct,2015,0
578dd53ec6,13,ChoiceTask,Easy,Yellow,501,Correct,2015,0
578dd53ec6,13,ChoiceTask,Easy,Blue,464,Correct,2015,0
578dd53ec6,13,ChoiceTask,Easy,Green,556,Correct,2015,0
578dd53ec6,13,ChoiceTask,Easy,Red,430,Correct,2015,0
578dd53ec6,14,ChoiceTask,Easy,Green,684,Correct,2015,0
578dd53ec6,14,ChoiceTask,Easy,Red,477,Correct,2015,0
578dd53ec6,14,ChoiceTask,Easy,Blue,468,Correct,2015,0
578dd53ec6,15,ChoiceTask,Easy,Green,448,Correct,2015,0
578dd53ec6,15,ChoiceTask,Easy,Blue,554,Correct,2015,0
578dd53ec6,15,ChoiceTask,Easy,Yellow,452,Correct,2015,0
578dd53ec6,15,ChoiceTask,Easy,Red,517,Correct,2015,0
578dd53ec6,16,ChoiceTask,Easy,Red,442,Correct,2015,0
578dd53ec6,16,ChoiceTask,Easy,Blue,489,Correct,2015,0
578dd53ec6,16,ChoiceTask,Easy,Red,400,Correct,2015,0
578dd53ec6,17,ChoiceTask,Easy,Yellow,443,Correct,2015,0
578dd53ec6,17,ChoiceTask,Easy,Yellow,554,Correct,2015,0
578dd53ec6,17,ChoiceTask,Easy,Yellow,533,Correct,2015,0
578dd53ec6,17,ChoiceTask,Easy,Yellow,517,Correct,2015,0
578dd53ec6,18,ChoiceTask,Easy,Yellow,536,Correct,2015,0
578dd53ec6,18,ChoiceTask,Easy,Blue,444,Correct,2015,0
578dd53ec6,18,ChoiceTask,Easy,Blue,535,Correct,2015,0
578dd53ec6,18,ChoiceTask,Easy,Yellow,512,Correct,2015,0
578dd53ec6,19,ChoiceTask,Easy,Red,414,Correct,2015,0
578dd53ec6,19,ChoiceTask,Easy,Red,446,Correct,2015,0
578dd53ec6,19,ChoiceTask,Easy,Green,589,Correct,2015,0
578dd53ec6,19,ChoiceTask,Easy,Yellow,491,Correct,2015,0
578dd53ec6,20,ChoiceTask,Easy,Blue,560,Correct,2015,0
578dd53ec6,20,ChoiceTask,Easy,Green,589,Correct,2015,0
578dd53ec6,20,ChoiceTask,Easy,Yellow,468,Correct,2015,0
578dd53ec6,20,ChoiceTask,Easy,Green,591,Correct,2015,0
578dd53ec6,21,ChoiceTask,Easy,Red,378,Correct,2015,0
578dd53ec6,21,ChoiceTask,Easy,Yellow,480,Correct,2015,0
578dd53ec6,21,ChoiceTask,Easy,Yellow,480,Correct,2015,0
578dd53ec6,21,ChoiceTask,Easy,Yellow,485,Correct,2015,0
578dd53ec6,22,ChoiceTask,Easy,Red,390,Correct,2015,0
578dd53ec6,22,ChoiceTask,Easy,Red,460,Correct,2015,0
578dd53ec6,22,ChoiceTask,Easy,Blue,501,Correct,2015,0
578dd53ec6,22,ChoiceTask,Easy,Red,497,Correct,2015,0
578dd53ec6,23,ChoiceTask,Easy,Yellow,435,Correct,2015,0
578dd53ec6,23,ChoiceTask,Easy,Red,434,Correct,2015,0
578dd53ec6,23,ChoiceTask,Easy,Blue,487,Correct,2015,0
578dd53ec6,23,ChoiceTask,Easy,Red,401,Correct,2015,0
578dd53ec6,24,ChoiceTask,Easy,Blue,452,Correct,2015,0
578dd53ec6,24,ChoiceTask,Easy,Blue,461,Correct,2015,0
578dd53ec6,24,ChoiceTask,Easy,Yellow,506,Correct,2015,0
578dd53ec6,24,ChoiceTask,Easy,Yellow,498,Correct,2015,0
578dd53ec6,25,ChoiceTask,Easy,Red,469,Correct,2015,0
578dd53ec6,25,ChoiceTask,Easy,Green,438,Correct,2015,0
578dd53ec6,25,ChoiceTask,Easy,Blue,479,Correct,2015,0
578dd53ec6,25,ChoiceTask,Easy,Green,635,Correct,2015,0
578dd53ec6,26,ChoiceTask,Easy,Red,434,Correct,2015,0
578dd53ec6,26,ChoiceTask,Easy,Green,502,Correct,2015,0
578dd53ec6,26,ChoiceTask,Easy,Green,518,Correct,2015,0
578dd53ec6,26,ChoiceTask,Easy,Blue,606,Correct,2015,0
578dd53ec6,27,ChoiceTask,Easy,Yellow,447,Correct,2015,0
578dd53ec6,27,ChoiceTask,Easy,Green,484,Correct,2015,0
578dd53ec6,27,ChoiceTask,Easy,Red,446,Correct,2015,0
578dd53ec6,27,ChoiceTask,Easy,Yellow,551,Correct,2015,0
578dd53ec6,28,ChoiceTask,Easy,Yellow,384,Correct,2015,0
578dd53ec6,28,ChoiceTask,Easy,Red,564,Correct,2015,0
578dd53ec6,28,ChoiceTask,Easy,Red,456,Correct,2015,0
578dd53ec6,28,ChoiceTask,Easy,Red,556,Correct,2015,0
578dd53ec6,29,ChoiceTask,Easy,Yellow,414,Correct,2015,0
578dd53ec6,29,ChoiceTask,Easy,Yellow,518,Correct,2015,0
578dd53ec6,29,ChoiceTask,Easy,Green,627,Correct,2015,0
578dd53ec6,30,ChoiceTask,Easy,Green,510,Correct,2015,0
578dd53ec6,30,ChoiceTask,Easy,Blue,446,Correct,2015,0
578dd53ec6,30,ChoiceTask,Easy,Blue,529,Correct,2015,0
578dd53ec6,30,ChoiceTask,Easy,Yellow,486,Correct,2015,0
578dd53ec6,31,ChoiceTask,Easy,Yellow,400,Correct,2015,0
578dd53ec6,31,ChoiceTask,Easy,Yellow,577,Correct,2015,0
578dd53ec6,31,ChoiceTask,Easy,Red,540,Correct,2015,0
578dd53ec6,31,ChoiceTask,Easy,Green,431,Correct,2015,0
578dd53ec6,32,ChoiceTask,Easy,Green,616,Correct,2015,0
578dd53ec6,32,ChoiceTask,Easy,Green,584,Correct,2015,0
578dd53ec6,32,ChoiceTask,Easy,Red,401,Correct,2015,0
578dd53ec6,32,ChoiceTask,Easy,Blue,460,Correct,2015,0
578dd53ec6,33,ChoiceTask,Easy,Blue,539,Correct,2015,0
578dd53ec6,33,ChoiceTask,Easy,Green,541,Correct,2015,0
578dd53ec6,33,ChoiceTask,Easy,Red,452,Correct,2015,0
578dd53ec6,34,ChoiceTask,Easy,Red,480,Correct,2015,0
578dd53ec6,34,ChoiceTask,Easy,Green,524,Correct,2015,0
578dd53ec6,34,ChoiceTask,Easy,Yellow,509,Correct,2015,0
578dd53ec6,34,ChoiceTask,Easy,Green,537,Correct,2015,0
578dd53ec6,35,ChoiceTask,Easy,Red,486,Correct,2015,0
578dd53ec6,35,ChoiceTask,Easy,Green,501,Correct,2015,0
578dd53ec6,35,ChoiceTask,Easy,Red,436,Correct,2015,0
578dd53ec6,36,ChoiceTask,Easy,Yellow,585,Correct,2015,0
578dd53ec6,36,ChoiceTask,Easy,Blue,529,Correct,2015,0
578dd53ec6,36,ChoiceTask,Easy,Yellow,553,Correct,2015,0
578dd53ec6,36,ChoiceTask,Easy,Green,669,Correct,2015,0
578dd53ec6,37,ChoiceTask,Easy,Blue,515,Correct,2015,0
578dd53ec6,37,ChoiceTask,Easy,Blue,463,Correct,2015,0
578dd53ec6,37,ChoiceTask,Easy,Green,552,Correct,2015,0
578dd53ec6,37,ChoiceTask,Easy,Blue,511,Correct,2015,0
578dd53ec6,38,ChoiceTask,Easy,Green,612,Correct,2015,0
578dd53ec6,38,ChoiceTask,Easy,Yellow,517,Correct,2015,0
578dd53ec6,38,ChoiceTask,Easy,Green,499,Correct,2015,0
578dd53ec6,38,ChoiceTask,Easy,Yellow,685,Correct,2015,0
578dd53ec6,39,ChoiceTask,Easy,Blue,580,Correct,2015,0
578dd53ec6,39,ChoiceTask,Easy,Yellow,439,Correct,2015,0
578dd53ec6,39,ChoiceTask,Easy,Blue,567,Correct,2015,0
578dd53ec6,39,ChoiceTask,Easy,Blue,519,Correct,2015,0
578dd53ec6,40,ChoiceTask,Easy,Blue,682,Correct,2015,0
578dd53ec6,40,ChoiceTask,Easy,Red,511,Correct,2015,0
578dd53ec6,40,ChoiceTask,Easy,Red,508,Correct,2015,0
578dd53ec6,40,ChoiceTask,Easy,Blue,510,Correct,2015,0
578dd53ec6,41,ChoiceTask,Easy,Red,538,Correct,2015,0
578dd53ec6,41,ChoiceTask,Easy,Yellow,497,Correct,2015,0
578dd53ec6,41,ChoiceTask,Easy,Green,456,Correct,2015,0
578dd53ec6,41,ChoiceTask,Easy,Blue,468,Correct,2015,0
578dd53ec6,42,ChoiceTask,Easy,Yellow,590,Correct,2015,0
578dd53ec6,42,ChoiceTask,Easy,Yellow,458,Correct,2015,0
578dd53ec6,42,ChoiceTask,Easy,Yellow,501,Correct,2015,0
578dd53ec6,42,ChoiceTask,Easy,Blue,466,Correct,2015,0
578dd53ec6,43,ChoiceTask,Easy,Green,556,Correct,2015,0
578dd53ec6,43,ChoiceTask,Easy,Red,430,Correct,2015,0
578dd53ec6,43,ChoiceTask,Easy,Green,544,Correct,2015,0
578dd53ec6,44,ChoiceTask,Easy,Green,580,Correct,2015,0
578dd53ec6,44,ChoiceTask,Easy,Green,402,Correct,2015,0
578dd53ec6,44,ChoiceTask,Easy,Blue,535,Correct,2015,0
578dd53ec6,44,ChoiceTask,Easy,Blue,418,Correct,2015,0
578dd53ec6,45,ChoiceTask,Easy,Blue,497,Correct,2015,0
578dd53ec6,45,ChoiceTask,Easy,Red,552,Correct,2015,0
578dd53ec6,45,ChoiceTask,Easy,Red,455,Correct,2015,0
578dd53ec6,45,ChoiceTask,Easy,Green,581,Correct,2015,0
578dd53ec6,46,ChoiceTask,Easy,Green,572,Correct,2015,0
578dd53ec6,46,ChoiceTask,Easy,Red,452,Correct,2015,0
578dd53ec6,46,ChoiceTask,Easy,Blue,572,Correct,2015,0
578dd53ec6,46,ChoiceTask,Easy,Red,502,Correct,2015,0
578dd53ec6,47,ChoiceTask,Easy,Yellow,536,Correct,2015,0
578dd53ec6,47,ChoiceTask,Easy,Red,466,Correct,2015,0
578dd53ec6,47,ChoiceTask,Easy,Red,401,Correct,2015,0
578dd53ec6,48,ChoiceTask,Easy,Green,494,Correct,2015,0
578dd53ec6,48,ChoiceTask,Easy,Blue,518,Correct,2015,0
578dd53ec6,48,ChoiceTask,Easy,Green,590,Correct,2015,0
578dd53ec6,48,ChoiceTask,Easy,Red,416,Correct,2015,0
578dd53ec6,49,ChoiceTask,Easy,Red,548,Correct,2015,0
578dd53ec6,49,ChoiceTask,Easy,Green,499,Correct,2015,0
578dd53ec6,49,ChoiceTask,Easy,Yellow,541,Correct,2015,0
578dd53ec6,50,ChoiceTask,Easy,Green,617,Correct,2015,0
578dd53ec6,50,ChoiceTask,Easy,Blue,570,Correct,2015,0
578dd53ec6,50,ChoiceTask,Easy,Green,490,Correct,2015,0
578dd53ec6,50,ChoiceTask,Easy,Blue,454,Correct,2015,0
578dd53ec6,51,ChoiceTask,Easy,Blue,502,Correct,2015,0
578dd53ec6,51,ChoiceTask,Easy,Green,518,Correct,2015,0
578dd53ec6,51,ChoiceTask,Easy,Red,454,Correct,2015,0
578dd53ec6,51,ChoiceTask,Easy,Green,535,Correct,2015,0
578dd53ec6,52,ChoiceTask,Easy,Blue,547,Correct,2015,0
578dd53ec6,52,ChoiceTask,Easy,Blue,487,Correct,2015,0
578dd53ec6,52,ChoiceTask,Easy,Blue,563,Correct,2015,0
578dd53ec6,52,ChoiceTask,Easy,Yellow,510,Correct,2015,0
578dd53ec6,53,ChoiceTask,Easy,Yellow,535,Correct,2015,0
578dd53ec6,53,ChoiceTask,Easy,Blue,468,Correct,2015,0
578dd53ec6,53,ChoiceTask,Easy,Yellow,401,Correct,2015,0
578dd53ec6,54,ChoiceTask,Easy,Red,347,Correct,2015,0
578dd53ec6,54,ChoiceTask,Easy,Yellow,502,Correct,2015,0
578dd53ec6,54,ChoiceTask,Easy,Blue,677,Correct,2015,0
578dd53ec6,55,ChoiceTask,Easy,Blue,564,Correct,2015,0
578dd53ec6,55,ChoiceTask,Easy,Yellow,490,Correct,2015,0
578dd53ec6,55,ChoiceTask,Easy,Blue,446,Correct,2015,0
578dd53ec6,55,ChoiceTask,Easy,Yellow,391,Correct,2015,0
578dd53ec6,56,ChoiceTask,Easy,Yellow,520,Correct,2015,0
578dd53ec6,56,ChoiceTask,Easy,Green,586,Correct,2015,0
578dd53ec6,56,ChoiceTask,Easy,Yellow,532,Correct,2015,0
578dd53ec6,56,ChoiceTask,Easy,Yellow,466,Correct,2015,0
578dd53ec6,57,ChoiceTask,Easy,Red,658,Correct,2015,0
578dd53ec6,57,ChoiceTask,Easy,Yellow,468,Correct,2015,0
578dd53ec6,57,ChoiceTask,Easy,Green,549,Correct,2015,0
578dd53ec6,58,ChoiceTask,Easy,Blue,589,Correct,2015,0
578dd53ec6,58,ChoiceTask,Easy,Green,639,Correct,2015,0
578dd53ec6,58,ChoiceTask,Easy,Red,551,Correct,2015,0
578dd53ec6,59,ChoiceTask,Easy,Yellow,396,Correct,2015,0
578dd53ec6,59,ChoiceTask,Easy,Red,635,Correct,2015,0
578dd53ec6,59,ChoiceTask,Easy,Red,568,Correct,2015,0
578dd53ec6,59,ChoiceTask,Easy,Red,469,Correct,2015,0
578dd53ec6,60,ChoiceTask,Easy,Blue,574,Correct,2015,0
578dd53ec6,60,ChoiceTask,Easy,Green,590,Correct,2015,0
578dd53ec6,60,ChoiceTask,Easy,Blue,507,Correct,2015,0
5fe3b46c7a,2,ChoiceTask,Easy,Blue,616,Correct,2014,0
5fe3b46c7a,4,ChoiceTask,Easy,Green,616,Correct,2014,0
5fe3b46c7a,5,ChoiceTask,Easy,Blue,683,Correct,2014,0
5fe3b46c7a,6,ChoiceTask,Easy,Red,583,Correct,2014,0
5fe3b46c7a,7,ChoiceTask,Easy,Blue,600,Correct,2014,0
5fe3b46c7a,8,ChoiceTask,Easy,Yellow,500,Correct,2014,0
5fe3b46c7a,9,ChoiceTask,Easy,Green,716,Correct,2014,0
5fe3b46c7a,10,ChoiceTask,Easy,Blue,616,Correct,2014,0
5fe3b46c7a,11,ChoiceTask,Easy,Red,533,Correct,2014,0
5fe3b46c7a,12,ChoiceTask,Easy,Yellow,533,Correct,2014,0
5fe3b46c7a,13,ChoiceTask,Easy,Green,650,Correct,2014,0
5fe3b46c7a,14,ChoiceTask,Easy,Green,633,Correct,2014,0
5fe3b46c7a,15,ChoiceTask,Easy,Blue,550,Correct,2014,0
5fe3b46c7a,16,ChoiceTask,Easy,Green,633,Correct,2014,0
5fe3b46c7a,17,ChoiceTask,Easy,Blue,450,Correct,2014,0
5fe3b46c7a,18,ChoiceTask,Easy,Red,600,Correct,2014,0
5fe3b46c7a,19,ChoiceTask,Easy,Yellow,616,Correct,2014,0
5fe3b46c7a,20,ChoiceTask,Easy,Green,633,Correct,2014,0
5fe3b46c7a,21,ChoiceTask,Easy,Yellow,683,Correct,2014,0
5fe3b46c7a,22,ChoiceTask,Easy,Blue,600,Correct,2014,0
5fe3b46c7a,23,ChoiceTask,Easy,Green,616,Correct,2014,0
5fe3b46c7a,24,ChoiceTask,Easy,Red,466,Correct,2014,0
5fe3b46c7a,25,ChoiceTask,Easy,Green,666,Correct,2014,0
5fe3b46c7a,26,ChoiceTask,Easy,Blue,733,Correct,2014,0
5fe3b46c7a,27,ChoiceTask,Easy,Green,750,Correct,2014,0
5fe3b46c7a,28,ChoiceTask,Easy,Green,566,Correct,2014,0
5fe3b46c7a,29,ChoiceTask,Easy,Blue,583,Correct,2014,0
64861fe13b,2,ChoiceTask,Easy,Blue,652,Correct,2015,0
64861fe13b,2,ChoiceTask,Easy,Yellow,561,Correct,2015,0
64861fe13b,3,ChoiceTask,Easy,Yellow,568,Correct,2015,0
64861fe13b,3,ChoiceTask,Easy,Red,531,Correct,2015,0
64861fe13b,4,ChoiceTask,Easy,Red,547,Correct,2015,0
64861fe13b,4,ChoiceTask,Easy,Yellow,597,Correct,2015,0
64861fe13b,5,ChoiceTask,Easy,Green,735,Correct,2015,0
64861fe13b,5,ChoiceTask,Easy,Green,605,Correct,2015,0
64861fe13b,6,ChoiceTask,Easy,Blue,351,Correct,2015,0
64861fe13b,6,ChoiceTask,Easy,Blue,552,Correct,2015,0
64861fe13b,7,ChoiceTask,Easy,Red,576,Correct,2015,0
64861fe13b,7,ChoiceTask,Easy,Blue,353,Correct,2015,0
64861fe13b,8,ChoiceTask,Easy,Green,715,Correct,2015,0
64861fe13b,8,ChoiceTask,Easy,Blue,375,Correct,2015,0
64861fe13b,9,ChoiceTask,Easy,Yellow,554,Correct,2015,0
64861fe13b,9,ChoiceTask,Easy,Yellow,498,Correct,2015,0
64861fe13b,10,ChoiceTask,Easy,Yellow,417,Correct,2015,0
64861fe13b,10,ChoiceTask,Easy,Blue,521,Correct,2015,0
64861fe13b,11,ChoiceTask,Easy,Green,764,Correct,2015,0
64861fe13b,11,ChoiceTask,Easy,Red,581,Correct,2015,0
64861fe13b,12,ChoiceTask,Easy,Blue,608,Correct,2015,0
64861fe13b,12,ChoiceTask,Easy,Yellow,549,Correct,2015,0
64861fe13b,13,ChoiceTask,Easy,Blue,484,Correct,2015,0
64861fe13b,13,ChoiceTask,Easy,Green,669,Correct,2015,0
64861fe13b,14,ChoiceTask,Easy,Blue,423,Correct,2015,0
64861fe13b,14,ChoiceTask,Easy,Red,417,Correct,2015,0
64861fe13b,15,ChoiceTask,Easy,Red,551,Correct,2015,0
64861fe13b,15,ChoiceTask,Easy,Blue,626,Correct,2015,0
64861fe13b,16,ChoiceTask,Easy,Red,391,Correct,2015,0
64861fe13b,16,ChoiceTask,Easy,Green,660,Correct,2015,0
64861fe13b,17,ChoiceTask,Easy,Red,372,Correct,2015,0
64861fe13b,17,ChoiceTask,Easy,Green,562,Correct,2015,0
64861fe13b,18,ChoiceTask,Easy,Green,880,Correct,2015,0
64861fe13b,18,ChoiceTask,Easy,Green,423,Correct,2015,0
64861fe13b,19,ChoiceTask,Easy,Yellow,635,Correct,2015,0
64861fe13b,19,ChoiceTask,Easy,Yellow,556,Correct,2015,0
64861fe13b,20,ChoiceTask,Easy,Yellow,356,Correct,2015,0
64861fe13b,20,ChoiceTask,Easy,Red,515,Correct,2015,0
64861fe13b,21,ChoiceTask,Easy,Green,703,Correct,2015,0
64861fe13b,21,ChoiceTask,Easy,Yellow,657,Correct,2015,0
64861fe13b,22,ChoiceTask,Easy,Yellow,590,Correct,2015,0
64861fe13b,22,ChoiceTask,Easy,Red,520,Correct,2015,0
64861fe13b,23,ChoiceTask,Easy,Red,536,Correct,2015,0
64861fe13b,23,ChoiceTask,Easy,Yellow,501,Correct,2015,0
64861fe13b,24,ChoiceTask,Easy,Blue,598,Correct,2015,0
64861fe13b,24,ChoiceTask,Easy,Red,527,Correct,2015,0
64861fe13b,25,ChoiceTask,Easy,Blue,452,Correct,2015,0
64861fe13b,25,ChoiceTask,Easy,Green,713,Correct,2015,0
64861fe13b,26,ChoiceTask,Easy,Blue,501,Correct,2015,0
64861fe13b,26,ChoiceTask,Easy,Yellow,557,Correct,2015,0
64861fe13b,27,ChoiceTask,Easy,Yellow,429,Correct,2015,0
64861fe13b,28,ChoiceTask,Easy,Yellow,598,Correct,2015,0
64861fe13b,29,ChoiceTask,Easy,Green,652,Correct,2015,0
64861fe13b,29,ChoiceTask,Easy,Green,434,Correct,2015,0
64861fe13b,30,ChoiceTask,Easy,Yellow,768,Correct,2015,0
64861fe13b,30,ChoiceTask,Easy,Blue,611,Correct,2015,0
64861fe13b,31,ChoiceTask,Easy,Green,593,Correct,2015,0
64861fe13b,32,ChoiceTask,Easy,Yellow,601,Correct,2015,0
64861fe13b,32,ChoiceTask,Easy,Yellow,502,Correct,2015,0
64861fe13b,33,ChoiceTask,Easy,Green,674,Correct,2015,0
64861fe13b,33,ChoiceTask,Easy,Red,632,Correct,2015,0
64861fe13b,34,ChoiceTask,Easy,Red,413,Correct,2015,0
64861fe13b,34,ChoiceTask,Easy,Green,736,Correct,2015,0
64861fe13b,35,ChoiceTask,Easy,Yellow,556,Correct,2015,0
64861fe13b,36,ChoiceTask,Easy,Red,636,Correct,2015,0
64861fe13b,36,ChoiceTask,Easy,Red,620,Correct,2015,0
64861fe13b,37,ChoiceTask,Easy,Green,681,Correct,2015,0
64861fe13b,38,ChoiceTask,Easy,Red,516,Correct,2015,0
64861fe13b,38,ChoiceTask,Easy,Green,570,Correct,2015,0
64861fe13b,39,ChoiceTask,Easy,Blue,606,Correct,2015,0
64861fe13b,39,ChoiceTask,Easy,Blue,552,Correct,2015,0
64861fe13b,40,ChoiceTask,Easy,Red,528,Correct,2015,0
64861fe13b,40,ChoiceTask,Easy,Blue,750,Correct,2015,0
64861fe13b,41,ChoiceTask,Easy,Yellow,540,Correct,2015,0
64861fe13b,41,ChoiceTask,Easy,Yellow,731,Correct,2015,0
64861fe13b,42,ChoiceTask,Easy,Green,809,Correct,2015,0
64861fe13b,42,ChoiceTask,Easy,Red,535,Correct,2015,0
64861fe13b,43,ChoiceTask,Easy,Yellow,733,Correct,2015,0
64861fe13b,43,ChoiceTask,Easy,Blue,610,Correct,2015,0
64861fe13b,44,ChoiceTask,Easy,Green,700,Correct,2015,0
64861fe13b,44,ChoiceTask,Easy,Green,589,Correct,2015,0
64861fe13b,45,ChoiceTask,Easy,Blue,756,Correct,2015,0
64861fe13b,45,ChoiceTask,Easy,Green,452,Correct,2015,0
64861fe13b,46,ChoiceTask,Easy,Red,477,Correct,2015,0
64861fe13b,46,ChoiceTask,Easy,Blue,685,Correct,2015,0
64861fe13b,47,ChoiceTask,Easy,Red,358,Correct,2015,0
64861fe13b,47,ChoiceTask,Easy,Red,518,Correct,2015,0
64861fe13b,48,ChoiceTask,Easy,Red,385,Correct,2015,0
64861fe13b,48,ChoiceTask,Easy,Green,745,Correct,2015,0
64861fe13b,49,ChoiceTask,Easy,Red,351,Correct,2015,0
64861fe13b,49,ChoiceTask,Easy,Yellow,631,Correct,2015,0
64861fe13b,50,ChoiceTask,Easy,Red,393,Correct,2015,0
64861fe13b,51,ChoiceTask,Easy,Red,447,Correct,2015,0
64861fe13b,51,ChoiceTask,Easy,Red,394,Correct,2015,0
64861fe13b,52,ChoiceTask,Easy,Yellow,501,Correct,2015,0
64861fe13b,52,ChoiceTask,Easy,Blue,538,Correct,2015,0
64861fe13b,53,ChoiceTask,Easy,Yellow,618,Correct,2015,0
64861fe13b,54,ChoiceTask,Easy,Green,748,Correct,2015,0
64861fe13b,54,ChoiceTask,Easy,Green,610,Correct,2015,0
64861fe13b,55,ChoiceTask,Easy,Yellow,737,Correct,2015,0
64861fe13b,55,ChoiceTask,Easy,Blue,591,Correct,2015,0
64861fe13b,56,ChoiceTask,Easy,Green,702,Correct,2015,0
64861fe13b,56,ChoiceTask,Easy,Green,673,Correct,2015,0
64861fe13b,57,ChoiceTask,Easy,Blue,422,Correct,2015,0
64861fe13b,57,ChoiceTask,Easy,Red,515,Correct,2015,0
64861fe13b,58,ChoiceTask,Easy,Blue,455,Correct,2015,0
64861fe13b,58,ChoiceTask,Easy,Yellow,501,Correct,2015,0
64861fe13b,60,ChoiceTask,Easy,Yellow,518,Correct,2015,0
64861fe13b,60,ChoiceTask,Easy,Yellow,535,Correct,2015,0
7f55a0edfb,2,ChoiceTask,Easy,Blue,882,Correct,2015,0
7f55a0edfb,2,ChoiceTask,Easy,Yellow,528,Correct,2015,0
7f55a0edfb,3,ChoiceTask,Easy,Red,580,Correct,2015,0
7f55a0edfb,3,ChoiceTask,Easy,Red,572,Correct,2015,0
7f55a0edfb,4,ChoiceTask,Easy,Blue,667,Correct,2015,0
7f55a0edfb,4,ChoiceTask,Easy,Green,547,Correct,2015,0
7f55a0edfb,5,ChoiceTask,Easy,Green,698,Correct,2015,0
7f55a0edfb,5,ChoiceTask,Easy,Green,461,Correct,2015,0
7f55a0edfb,6,ChoiceTask,Easy,Blue,755,Correct,2015,0
7f55a0edfb,6,ChoiceTask,Easy,Blue,669,Correct,2015,0
7f55a0edfb,7,ChoiceTask,Easy,Red,506,Correct,2015,0
7f55a0edfb,7,ChoiceTask,Easy,Blue,553,Correct,2015,0
7f55a0edfb,8,ChoiceTask,Easy,Green,593,Correct,2015,0
7f55a0edfb,8,ChoiceTask,Easy,Blue,551,Correct,2015,0
7f55a0edfb,9,ChoiceTask,Easy,Red,532,Correct,2015,0
7f55a0edfb,9,ChoiceTask,Easy,Red,554,Correct,2015,0
7f55a0edfb,10,ChoiceTask,Easy,Yellow,417,Correct,2015,0
7f55a0edfb,10,ChoiceTask,Easy,Green,680,Correct,2015,0
7f55a0edfb,11,ChoiceTask,Easy,Blue,787,Correct,2015,0
7f55a0edfb,12,ChoiceTask,Easy,Blue,701,Correct,2015,0
7f55a0edfb,12,ChoiceTask,Easy,Red,586,Correct,2015,0
7f55a0edfb,13,ChoiceTask,Easy,Yellow,598,Correct,2015,0
7f55a0edfb,13,ChoiceTask,Easy,Red,559,Correct,2015,0
7f55a0edfb,14,ChoiceTask,Easy,Yellow,748,Correct,2015,0
7f55a0edfb,14,ChoiceTask,Easy,Yellow,634,Correct,2015,0
7f55a0edfb,15,ChoiceTask,Easy,Green,955,Correct,2015,0
7f55a0edfb,15,ChoiceTask,Easy,Yellow,452,Correct,2015,0
7f55a0edfb,16,ChoiceTask,Easy,Green,502,Correct,2015,0
7f55a0edfb,16,ChoiceTask,Easy,Blue,575,Correct,2015,0
7f55a0edfb,17,ChoiceTask,Easy,Red,452,Correct,2015,0
7f55a0edfb,17,ChoiceTask,Easy,Green,540,Correct,2015,0
7f55a0edfb,18,ChoiceTask,Easy,Yellow,613,Correct,2015,0
7f55a0edfb,19,ChoiceTask,Easy,Yellow,568,Correct,2015,0
7f55a0edfb,19,ChoiceTask,Easy,Red,568,Correct,2015,0
7f55a0edfb,20,ChoiceTask,Easy,Green,758,Correct,2015,0
7f55a0edfb,20,ChoiceTask,Easy,Green,557,Correct,2015,0
7f55a0edfb,21,ChoiceTask,Easy,Yellow,652,Correct,2015,0
7f55a0edfb,22,ChoiceTask,Easy,Green,571,Correct,2015,0
7f55a0edfb,23,ChoiceTask,Easy,Green,658,Correct,2015,0
7f55a0edfb,23,ChoiceTask,Easy,Green,540,Correct,2015,0
7f55a0edfb,24,ChoiceTask,Easy,Yellow,546,Correct,2015,0
7f55a0edfb,24,ChoiceTask,Easy,Green,518,Correct,2015,0
7f55a0edfb,25,ChoiceTask,Easy,Blue,702,Correct,2015,0
7f55a0edfb,25,ChoiceTask,Easy,Blue,731,Correct,2015,0
7f55a0edfb,26,ChoiceTask,Easy,Green,391,Correct,2015,0
7f55a0edfb,26,ChoiceTask,Easy,Red,577,Correct,2015,0
7f55a0edfb,27,ChoiceTask,Easy,Red,432,Correct,2015,0
7f55a0edfb,27,ChoiceTask,Easy,Blue,647,Correct,2015,0
7f55a0edfb,28,ChoiceTask,Easy,Blue,556,Correct,2015,0
7f55a0edfb,28,ChoiceTask,Easy,Yellow,547,Correct,2015,0
7f55a0edfb,29,ChoiceTask,Easy,Green,686,Correct,2015,0
7f55a0edfb,29,ChoiceTask,Easy,Yellow,591,Correct,2015,0
7f55a0edfb,30,ChoiceTask,Easy,Yellow,553,Correct,2015,0
7f55a0edfb,30,ChoiceTask,Easy,Blue,669,Correct,2015,0
7f55a0edfb,31,ChoiceTask,Easy,Green,1071,Correct,2015,0
7f55a0edfb,31,ChoiceTask,Easy,Red,602,Correct,2015,0
7f55a0edfb,32,ChoiceTask,Easy,Blue,483,Correct,2015,0
7f55a0edfb,32,ChoiceTask,Easy,Yellow,735,Correct,2015,0
7f55a0edfb,33,ChoiceTask,Easy,Red,569,Correct,2015,0
7f55a0edfb,33,ChoiceTask,Easy,Red,615,Correct,2015,0
7f55a0edfb,34,ChoiceTask,Easy,Red,543,Correct,2015,0
7f55a0edfb,34,ChoiceTask,Easy,Red,536,Correct,2015,0
7f55a0edfb,35,ChoiceTask,Easy,Yellow,873,Correct,2015,0
7f55a0edfb,35,ChoiceTask,Easy,Green,593,Correct,2015,0
7f55a0edfb,36,ChoiceTask,Easy,Blue,993,Correct,2015,0
7f55a0edfb,36,ChoiceTask,Easy,Blue,603,Correct,2015,0
7f55a0edfb,37,ChoiceTask,Easy,Green,590,Correct,2015,0
7f55a0edfb,37,ChoiceTask,Easy,Red,477,Correct,2015,0
7f55a0edfb,38,ChoiceTask,Easy,Yellow,678,Correct,2015,0
7f55a0edfb,38,ChoiceTask,Easy,Yellow,1081,Correct,2015,0
7f55a0edfb,39,ChoiceTask,Easy,Red,576,Correct,2015,0
7f55a0edfb,39,ChoiceTask,Easy,Yellow,535,Correct,2015,0
7f55a0edfb,40,ChoiceTask,Easy,Red,508,Correct,2015,0
7f55a0edfb,40,ChoiceTask,Easy,Blue,638,Correct,2015,0
7f55a0edfb,41,ChoiceTask,Easy,Blue,770,Correct,2015,0
7f55a0edfb,41,ChoiceTask,Easy,Green,583,Correct,2015,0
7f55a0edfb,42,ChoiceTask,Easy,Yellow,553,Correct,2015,0
7f55a0edfb,42,ChoiceTask,Easy,Red,491,Correct,2015,0
7f55a0edfb,43,ChoiceTask,Easy,Red,534,Correct,2015,0
7f55a0edfb,43,ChoiceTask,Easy,Blue,480,Correct,2015,0
7f55a0edfb,44,ChoiceTask,Easy,Green,581,Correct,2015,0
7f55a0edfb,44,ChoiceTask,Easy,Blue,539,Correct,2015,0
7f55a0edfb,45,ChoiceTask,Easy,Yellow,505,Correct,2015,0
7f55a0edfb,45,ChoiceTask,Easy,Yellow,577,Correct,2015,0
7f55a0edfb,46,ChoiceTask,Easy,Green,615,Correct,2015,0
7f55a0edfb,46,ChoiceTask,Easy,Green,524,Correct,2015,0
7f55a0edfb,47,ChoiceTask,Easy,Yellow,797,Correct,2015,0
7f55a0edfb,47,ChoiceTask,Easy,Yellow,635,Correct,2015,0
7f55a0edfb,48,ChoiceTask,Easy,Red,568,Correct,2015,0
7f55a0edfb,48,ChoiceTask,Easy,Blue,601,Correct,2015,0
7f55a0edfb,49,ChoiceTask,Easy,Blue,532,Correct,2015,0
7f55a0edfb,49,ChoiceTask,Easy,Yellow,611,Correct,2015,0
7f55a0edfb,50,ChoiceTask,Easy,Red,668,Correct,2015,0
7f55a0edfb,50,ChoiceTask,Easy,Green,585,Correct,2015,0
7f55a0edfb,51,ChoiceTask,Easy,Green,658,Correct,2015,0
7f55a0edfb,51,ChoiceTask,Easy,Yellow,637,Correct,2015,0
7f55a0edfb,52,ChoiceTask,Easy,Blue,861,Correct,2015,0
7f55a0edfb,52,ChoiceTask,Easy,Blue,492,Correct,2015,0
7f55a0edfb,53,ChoiceTask,Easy,Green,1103,Correct,2015,0
7f55a0edfb,53,ChoiceTask,Easy,Yellow,703,Correct,2015,0
7f55a0edfb,54,ChoiceTask,Easy,Red,551,Correct,2015,0
7f55a0edfb,54,ChoiceTask,Easy,Red,553,Correct,2015,0
7f55a0edfb,55,ChoiceTask,Easy,Green,725,Correct,2015,0
7f55a0edfb,56,ChoiceTask,Easy,Yellow,652,Correct,2015,0
7f55a0edfb,56,ChoiceTask,Easy,Green,728,Correct,2015,0
7f55a0edfb,57,ChoiceTask,Easy,Yellow,556,Correct,2015,0
7f55a0edfb,57,ChoiceTask,Easy,Green,578,Correct,2015,0
7f55a0edfb,58,ChoiceTask,Easy,Blue,887,Correct,2015,0
7f55a0edfb,58,ChoiceTask,Easy,Red,571,Correct,2015,0
7f55a0edfb,59,ChoiceTask,Easy,Red,534,Correct,2015,0
7f55a0edfb,59,ChoiceTask,Easy,Red,609,Correct,2015,0
7f55a0edfb,60,ChoiceTask,Easy,Blue,752,Correct,2015,0
7f55a0edfb,60,ChoiceTask,Easy,Red,526,Correct,2015,0
7f8d27acf0,2,ChoiceTask,Easy,Blue,1136,Correct,2015,0
7f8d27acf0,2,ChoiceTask,Easy,Yellow,472,Correct,2015,0
7f8d27acf0,3,ChoiceTask,Easy,Red,655,Correct,2015,0
7f8d27acf0,3,ChoiceTask,Easy,Blue,769,Correct,2015,0
7f8d27acf0,4,ChoiceTask,Easy,Yellow,413,Correct,2015,0
7f8d27acf0,5,ChoiceTask,Easy,Red,489,Correct,2015,0
7f8d27acf0,5,ChoiceTask,Easy,Green,641,Correct,2015,0
7f8d27acf0,6,ChoiceTask,Easy,Blue,923,Correct,2015,0
7f8d27acf0,6,ChoiceTask,Easy,Red,619,Correct,2015,0
7f8d27acf0,7,ChoiceTask,Easy,Blue,875,Correct,2015,0
7f8d27acf0,7,ChoiceTask,Easy,Green,714,Correct,2015,0
7f8d27acf0,8,ChoiceTask,Easy,Red,704,Correct,2015,0
7f8d27acf0,8,ChoiceTask,Easy,Blue,934,Correct,2015,0
7f8d27acf0,9,ChoiceTask,Easy,Green,657,Correct,2015,0
7f8d27acf0,9,ChoiceTask,Easy,Yellow,623,Correct,2015,0
7f8d27acf0,10,ChoiceTask,Easy,Red,777,Correct,2015,0
7f8d27acf0,10,ChoiceTask,Easy,Red,730,Correct,2015,0
7f8d27acf0,11,ChoiceTask,Easy,Yellow,753,Correct,2015,0
7f8d27acf0,11,ChoiceTask,Easy,Green,770,Correct,2015,0
7f8d27acf0,12,ChoiceTask,Easy,Green,661,Correct,2015,0
7f8d27acf0,12,ChoiceTask,Easy,Red,735,Correct,2015,0
7f8d27acf0,13,ChoiceTask,Easy,Green,951,Correct,2015,0
7f8d27acf0,14,ChoiceTask,Easy,Green,1087,Correct,2015,0
7f8d27acf0,14,ChoiceTask,Easy,Blue,447,Correct,2015,0
7f8d27acf0,15,ChoiceTask,Easy,Yellow,593,Correct,2015,0
7f8d27acf0,15,ChoiceTask,Easy,Red,480,Correct,2015,0
7f8d27acf0,16,ChoiceTask,Easy,Yellow,469,Correct,2015,0
7f8d27acf0,16,ChoiceTask,Easy,Red,535,Correct,2015,0
7f8d27acf0,17,ChoiceTask,Easy,Blue,1078,Correct,2015,0
7f8d27acf0,17,ChoiceTask,Easy,Green,669,Correct,2015,0
7f8d27acf0,18,ChoiceTask,Easy,Yellow,630,Correct,2015,0
7f8d27acf0,18,ChoiceTask,Easy,Yellow,769,Correct,2015,0
7f8d27acf0,19,ChoiceTask,Easy,Blue,770,Correct,2015,0
7f8d27acf0,20,ChoiceTask,Easy,Green,582,Correct,2015,0
7f8d27acf0,20,ChoiceTask,Easy,Yellow,790,Correct,2015,0
7f8d27acf0,21,ChoiceTask,Easy,Blue,736,Correct,2015,0
7f8d27acf0,21,ChoiceTask,Easy,Green,911,Correct,2015,0
7f8d27acf0,22,ChoiceTask,Easy,Yellow,647,Correct,2015,0
7f8d27acf0,22,ChoiceTask,Easy,Blue,459,Correct,2015,0
7f8d27acf0,23,ChoiceTask,Easy,Green,786,Correct,2015,0
7f8d27acf0,23,ChoiceTask,Easy,Yellow,531,Correct,2015,0
7f8d27acf0,24,ChoiceTask,Easy,Yellow,535,Correct,2015,0
7f8d27acf0,24,ChoiceTask,Easy,Yellow,509,Correct,2015,0
7f8d27acf0,25,ChoiceTask,Easy,Red,616,Correct,2015,0
7f8d27acf0,25,ChoiceTask,Easy,Red,697,Correct,2015,0
7f8d27acf0,26,ChoiceTask,Easy,Yellow,687,Correct,2015,0
7f8d27acf0,26,ChoiceTask,Easy,Green,766,Correct,2015,0
7f8d27acf0,27,ChoiceTask,Easy,Blue,852,Correct,2015,0
7f8d27acf0,27,ChoiceTask,Easy,Red,526,Correct,2015,0
7f8d27acf0,28,ChoiceTask,Easy,Red,617,Correct,2015,0
7f8d27acf0,28,ChoiceTask,Easy,Green,803,Correct,2015,0
7f8d27acf0,29,ChoiceTask,Easy,Yellow,627,Correct,2015,0
7f8d27acf0,30,ChoiceTask,Easy,Yellow,632,Correct,2015,0
7f8d27acf0,31,ChoiceTask,Easy,Yellow,473,Correct,2015,0
7f8d27acf0,31,ChoiceTask,Easy,Yellow,481,Correct,2015,0
7f8d27acf0,32,ChoiceTask,Easy,Green,702,Correct,2015,0
7f8d27acf0,32,ChoiceTask,Easy,Green,589,Correct,2015,0
7f8d27acf0,33,ChoiceTask,Easy,Red,467,Correct,2015,0
7f8d27acf0,33,ChoiceTask,Easy,Red,706,Correct,2015,0
7f8d27acf0,34,ChoiceTask,Easy,Red,617,Correct,2015,0
7f8d27acf0,34,ChoiceTask,Easy,Blue,764,Correct,2015,0
7f8d27acf0,35,ChoiceTask,Easy,Green,619,Correct,2015,0
7f8d27acf0,35,ChoiceTask,Easy,Green,783,Correct,2015,0
7f8d27acf0,36,ChoiceTask,Easy,Blue,400,Correct,2015,0
7f8d27acf0,36,ChoiceTask,Easy,Red,685,Correct,2015,0
7f8d27acf0,37,ChoiceTask,Easy,Green,990,Correct,2015,0
7f8d27acf0,37,ChoiceTask,Easy,Red,529,Correct,2015,0
7f8d27acf0,38,ChoiceTask,Easy,Blue,588,Correct,2015,0
7f8d27acf0,39,ChoiceTask,Easy,Yellow,588,Correct,2015,0
7f8d27acf0,39,ChoiceTask,Easy,Blue,924,Correct,2015,0
7f8d27acf0,40,ChoiceTask,Easy,Red,435,Correct,2015,0
7f8d27acf0,40,ChoiceTask,Easy,Blue,569,Correct,2015,0
7f8d27acf0,41,ChoiceTask,Easy,Green,956,Correct,2015,0
7f8d27acf0,41,ChoiceTask,Easy,Yellow,786,Correct,2015,0
7f8d27acf0,42,ChoiceTask,Easy,Blue,666,Correct,2015,0
7f8d27acf0,42,ChoiceTask,Easy,Green,748,Correct,2015,0
7f8d27acf0,43,ChoiceTask,Easy,Red,577,Correct,2015,0
7f8d27acf0,43,ChoiceTask,Easy,Red,578,Correct,2015,0
7f8d27acf0,44,ChoiceTask,Easy,Blue,1210,Correct,2015,0
7f8d27acf0,44,ChoiceTask,Easy,Red,462,Correct,2015,0
7f8d27acf0,45,ChoiceTask,Easy,Yellow,505,Correct,2015,0
7f8d27acf0,45,ChoiceTask,Easy,Red,403,Correct,2015,0
7f8d27acf0,46,ChoiceTask,Easy,Yellow,521,Correct,2015,0
7f8d27acf0,47,ChoiceTask,Easy,Red,769,Correct,2015,0
7f8d27acf0,47,ChoiceTask,Easy,Yellow,656,Correct,2015,0
7f8d27acf0,48,ChoiceTask,Easy,Green,713,Correct,2015,0
7f8d27acf0,48,ChoiceTask,Easy,Blue,706,Correct,2015,0
7f8d27acf0,49,ChoiceTask,Easy,Green,502,Correct,2015,0
7f8d27acf0,49,ChoiceTask,Easy,Blue,601,Correct,2015,0
7f8d27acf0,50,ChoiceTask,Easy,Blue,913,Correct,2015,0
7f8d27acf0,50,ChoiceTask,Easy,Green,921,Correct,2015,0
7f8d27acf0,51,ChoiceTask,Easy,Yellow,388,Correct,2015,0
7f8d27acf0,51,ChoiceTask,Easy,Blue,787,Correct,2015,0
7f8d27acf0,52,ChoiceTask,Easy,Red,622,Correct,2015,0
7f8d27acf0,52,ChoiceTask,Easy,Green,924,Correct,2015,0
7f8d27acf0,53,ChoiceTask,Easy,Red,940,Correct,2015,0
7f8d27acf0,54,ChoiceTask,Easy,Yellow,484,Correct,2015,0
7f8d27acf0,54,ChoiceTask,Easy,Yellow,635,Correct,2015,0
7f8d27acf0,55,ChoiceTask,Easy,Green,844,Correct,2015,0
7f8d27acf0,56,ChoiceTask,Easy,Red,1032,Correct,2015,0
7f8d27acf0,57,ChoiceTask,Easy,Red,660,Correct,2015,0
7f8d27acf0,57,ChoiceTask,Easy,Blue,786,Correct,2015,0
7f8d27acf0,58,ChoiceTask,Easy,Blue,523,Correct,2015,0
7f8d27acf0,58,ChoiceTask,Easy,Blue,486,Correct,2015,0
7f8d27acf0,59,ChoiceTask,Easy,Red,709,Correct,2015,0
7f8d27acf0,59,ChoiceTask,Easy,Yellow,658,Correct,2015,0
7f8d27acf0,60,ChoiceTask,Easy,Green,758,Correct,2015,0
7f8d27acf0,60,ChoiceTask,Easy,Yellow,429,Correct,2015,0
86816f44ef,2,ChoiceTask,Easy,Blue,566,Correct,2015,0
86816f44ef,2,ChoiceTask,Easy,Red,423,Correct,2015,0
86816f44ef,2,ChoiceTask,Easy,Green,489,Correct,2015,0
86816f44ef,2,ChoiceTask,Easy,Blue,345,Correct,2015,0
86816f44ef,3,ChoiceTask,Easy,Blue,501,Correct,2015,0
86816f44ef,3,ChoiceTask,Easy,Blue,382,Correct,2015,0
86816f44ef,3,ChoiceTask,Easy,Yellow,437,Correct,2015,0
86816f44ef,3,ChoiceTask,Easy,Green,455,Correct,2015,0
86816f44ef,4,ChoiceTask,Easy,Green,451,Correct,2015,0
86816f44ef,4,ChoiceTask,Easy,Blue,640,Correct,2015,0
86816f44ef,4,ChoiceTask,Easy,Blue,334,Correct,2015,0
86816f44ef,5,ChoiceTask,Easy,Yellow,496,Correct,2015,0
86816f44ef,5,ChoiceTask,Easy,Blue,496,Correct,2015,0
86816f44ef,5,ChoiceTask,Easy,Yellow,392,Correct,2015,0
86816f44ef,5,ChoiceTask,Easy,Red,494,Correct,2015,0
86816f44ef,6,ChoiceTask,Easy,Red,465,Correct,2015,0
86816f44ef,6,ChoiceTask,Easy,Green,438,Correct,2015,0
86816f44ef,6,ChoiceTask,Easy,Blue,368,Correct,2015,0
86816f44ef,6,ChoiceTask,Easy,Yellow,385,Correct,2015,0
86816f44ef,7,ChoiceTask,Easy,Red,568,Correct,2015,0
86816f44ef,7,ChoiceTask,Easy,Red,367,Correct,2015,0
86816f44ef,7,ChoiceTask,Easy,Blue,418,Correct,2015,0
86816f44ef,7,ChoiceTask,Easy,Blue,441,Correct,2015,0
86816f44ef,8,ChoiceTask,Easy,Red,496,Correct,2015,0
86816f44ef,8,ChoiceTask,Easy,Red,464,Correct,2015,0
86816f44ef,8,ChoiceTask,Easy,Red,359,Correct,2015,0
86816f44ef,8,ChoiceTask,Easy,Blue,314,Correct,2015,0
86816f44ef,9,ChoiceTask,Easy,Green,348,Correct,2015,0
86816f44ef,9,ChoiceTask,Easy,Blue,558,Correct,2015,0
86816f44ef,9,ChoiceTask,Easy,Red,439,Correct,2015,0
86816f44ef,10,ChoiceTask,Easy,Yellow,469,Correct,2015,0
86816f44ef,10,ChoiceTask,Easy,Red,361,Correct,2015,0
86816f44ef,11,ChoiceTask,Easy,Blue,375,Correct,2015,0
86816f44ef,11,ChoiceTask,Easy,Blue,618,Correct,2015,0
86816f44ef,11,ChoiceTask,Easy,Blue,333,Correct,2015,0
86816f44ef,11,ChoiceTask,Easy,Green,513,Correct,2015,0
86816f44ef,12,ChoiceTask,Easy,Green,605,Correct,2015,0
86816f44ef,12,ChoiceTask,Easy,Green,538,Correct,2015,0
86816f44ef,12,ChoiceTask,Easy,Green,427,Correct,2015,0
86816f44ef,12,ChoiceTask,Easy,Red,476,Correct,2015,0
86816f44ef,13,ChoiceTask,Easy,Yellow,448,Correct,2015,0
86816f44ef,13,ChoiceTask,Easy,Yellow,636,Correct,2015,0
86816f44ef,14,ChoiceTask,Easy,Red,500,Correct,2015,0
86816f44ef,14,ChoiceTask,Easy,Yellow,463,Correct,2015,0
86816f44ef,14,ChoiceTask,Easy,Green,469,Correct,2015,0
86816f44ef,15,ChoiceTask,Easy,Blue,484,Correct,2015,0
86816f44ef,15,ChoiceTask,Easy,Yellow,325,Correct,2015,0
86816f44ef,15,ChoiceTask,Easy,Yellow,573,Correct,2015,0
86816f44ef,16,ChoiceTask,Easy,Green,363,Correct,2015,0
86816f44ef,16,ChoiceTask,Easy,Green,496,Correct,2015,0
86816f44ef,16,ChoiceTask,Easy,Red,440,Correct,2015,0
86816f44ef,16,ChoiceTask,Easy,Yellow,582,Correct,2015,0
86816f44ef,17,ChoiceTask,Easy,Yellow,334,Correct,2015,0
86816f44ef,17,ChoiceTask,Easy,Yellow,612,Correct,2015,0
86816f44ef,17,ChoiceTask,Easy,Blue,318,Correct,2015,0
86816f44ef,17,ChoiceTask,Easy,Green,624,Correct,2015,0
86816f44ef,18,ChoiceTask,Easy,Red,421,Correct,2015,0
86816f44ef,18,ChoiceTask,Easy,Yellow,642,Correct,2015,0
86816f44ef,18,ChoiceTask,Easy,Green,286,Correct,2015,0
86816f44ef,19,ChoiceTask,Easy,Red,501,Correct,2015,0
86816f44ef,19,ChoiceTask,Easy,Red,467,Correct,2015,0
86816f44ef,19,ChoiceTask,Easy,Blue,429,Correct,2015,0
86816f44ef,20,ChoiceTask,Easy,Yellow,452,Correct,2015,0
86816f44ef,20,ChoiceTask,Easy,Red,452,Correct,2015,0
86816f44ef,20,ChoiceTask,Easy,Yellow,339,Correct,2015,0
86816f44ef,21,ChoiceTask,Easy,Blue,452,Correct,2015,0
86816f44ef,21,ChoiceTask,Easy,Blue,518,Correct,2015,0
86816f44ef,22,ChoiceTask,Easy,Green,518,Correct,2015,0
86816f44ef,22,ChoiceTask,Easy,Yellow,606,Correct,2015,0
86816f44ef,22,ChoiceTask,Easy,Green,399,Correct,2015,0
86816f44ef,22,ChoiceTask,Easy,Red,448,Correct,2015,0
86816f44ef,23,ChoiceTask,Easy,Green,587,Correct,2015,0
86816f44ef,23,ChoiceTask,Easy,Yellow,535,Correct,2015,0
86816f44ef,23,ChoiceTask,Easy,Yellow,528,Correct,2015,0
86816f44ef,24,ChoiceTask,Easy,Yellow,536,Correct,2015,0
86816f44ef,24,ChoiceTask,Easy,Red,356,Correct,2015,0
86816f44ef,24,ChoiceTask,Easy,Yellow,535,Correct,2015,0
86816f44ef,25,ChoiceTask,Easy,Red,481,Correct,2015,0
86816f44ef,25,ChoiceTask,Easy,Red,414,Correct,2015,0
86816f44ef,26,ChoiceTask,Easy,Yellow,498,Correct,2015,0
86816f44ef,26,ChoiceTask,Easy,Blue,389,Correct,2015,0
86816f44ef,26,ChoiceTask,Easy,Green,539,Correct,2015,0
86816f44ef,27,ChoiceTask,Easy,Green,440,Correct,2015,0
86816f44ef,27,ChoiceTask,Easy,Red,601,Correct,2015,0
86816f44ef,27,ChoiceTask,Easy,Yellow,677,Correct,2015,0
86816f44ef,28,ChoiceTask,Easy,Red,542,Correct,2015,0
86816f44ef,28,ChoiceTask,Easy,Blue,404,Correct,2015,0
86816f44ef,28,ChoiceTask,Easy,Blue,395,Correct,2015,0
86816f44ef,28,ChoiceTask,Easy,Green,501,Correct,2015,0
86816f44ef,29,ChoiceTask,Easy,Green,620,Correct,2015,0
86816f44ef,29,ChoiceTask,Easy,Red,623,Correct,2015,0
86816f44ef,29,ChoiceTask,Easy,Blue,374,Correct,2015,0
86816f44ef,30,ChoiceTask,Easy,Blue,406,Correct,2015,0
86816f44ef,30,ChoiceTask,Easy,Yellow,429,Correct,2015,0
86816f44ef,30,ChoiceTask,Easy,Red,384,Correct,2015,0
86816f44ef,30,ChoiceTask,Easy,Yellow,634,Correct,2015,0
86816f44ef,31,ChoiceTask,Easy,Blue,516,Correct,2015,0
86816f44ef,31,ChoiceTask,Easy,Green,356,Correct,2015,0
86816f44ef,31,ChoiceTask,Easy,Red,573,Correct,2015,0
86816f44ef,31,ChoiceTask,Easy,Yellow,546,Correct,2015,0
86816f44ef,32,ChoiceTask,Easy,Yellow,378,Correct,2015,0
86816f44ef,32,ChoiceTask,Easy,Blue,436,Correct,2015,0
86816f44ef,32,ChoiceTask,Easy,Blue,439,Correct,2015,0
86816f44ef,32,ChoiceTask,Easy,Red,516,Correct,2015,0
86816f44ef,33,ChoiceTask,Easy,Blue,440,Correct,2015,0
86816f44ef,33,ChoiceTask,Easy,Yellow,484,Correct,2015,0
86816f44ef,33,ChoiceTask,Easy,Blue,503,Correct,2015,0
86816f44ef,33,ChoiceTask,Easy,Red,429,Correct,2015,0
86816f44ef,34,ChoiceTask,Easy,Red,424,Correct,2015,0
86816f44ef,34,ChoiceTask,Easy,Blue,352,Correct,2015,0
86816f44ef,34,ChoiceTask,Easy,Green,378,Correct,2015,0
86816f44ef,35,ChoiceTask,Easy,Green,391,Correct,2015,0
86816f44ef,35,ChoiceTask,Easy,Green,591,Correct,2015,0
86816f44ef,36,ChoiceTask,Easy,Green,651,Correct,2015,0
86816f44ef,36,ChoiceTask,Easy,Red,503,Correct,2015,0
86816f44ef,36,ChoiceTask,Easy,Blue,413,Correct,2015,0
86816f44ef,37,ChoiceTask,Easy,Red,488,Correct,2015,0
86816f44ef,37,ChoiceTask,Easy,Blue,558,Correct,2015,0
86816f44ef,37,ChoiceTask,Easy,Red,406,Correct,2015,0
86816f44ef,38,ChoiceTask,Easy,Red,432,Correct,2015,0
86816f44ef,38,ChoiceTask,Easy,Yellow,518,Correct,2015,0
86816f44ef,38,ChoiceTask,Easy,Red,518,Correct,2015,0
86816f44ef,39,ChoiceTask,Easy,Red,519,Correct,2015,0
86816f44ef,40,ChoiceTask,Easy,Red,651,Correct,2015,0
86816f44ef,40,ChoiceTask,Easy,Blue,446,Correct,2015,0
86816f44ef,41,ChoiceTask,Easy,Red,622,Correct,2015,0
86816f44ef,41,ChoiceTask,Easy,Green,618,Correct,2015,0
86816f44ef,42,ChoiceTask,Easy,Green,418,Correct,2015,0
86816f44ef,42,ChoiceTask,Easy,Yellow,534,Correct,2015,0
86816f44ef,42,ChoiceTask,Easy,Blue,326,Correct,2015,0
86816f44ef,42,ChoiceTask,Easy,Yellow,478,Correct,2015,0
86816f44ef,43,ChoiceTask,Easy,Blue,401,Correct,2015,0
86816f44ef,43,ChoiceTask,Easy,Red,489,Correct,2015,0
86816f44ef,43,ChoiceTask,Easy,Yellow,322,Correct,2015,0
86816f44ef,44,ChoiceTask,Easy,Yellow,539,Correct,2015,0
86816f44ef,44,ChoiceTask,Easy,Green,538,Correct,2015,0
86816f44ef,44,ChoiceTask,Easy,Red,534,Correct,2015,0
86816f44ef,44,ChoiceTask,Easy,Green,413,Correct,2015,0
86816f44ef,45,ChoiceTask,Easy,Yellow,514,Correct,2015,0
86816f44ef,45,ChoiceTask,Easy,Red,435,Correct,2015,0
86816f44ef,45,ChoiceTask,Easy,Red,478,Correct,2015,0
86816f44ef,45,ChoiceTask,Easy,Red,514,Correct,2015,0
86816f44ef,46,ChoiceTask,Easy,Yellow,467,Correct,2015,0
86816f44ef,46,ChoiceTask,Easy,Red,418,Correct,2015,0
86816f44ef,46,ChoiceTask,Easy,Green,465,Correct,2015,0
86816f44ef,46,ChoiceTask,Easy,Red,447,Correct,2015,0
86816f44ef,47,ChoiceTask,Easy,Green,484,Correct,2015,0
86816f44ef,47,ChoiceTask,Easy,Blue,335,Correct,2015,0
86816f44ef,48,ChoiceTask,Easy,Blue,402,Correct,2015,0
86816f44ef,48,ChoiceTask,Easy,Blue,435,Correct,2015,0
86816f44ef,48,ChoiceTask,Easy,Yellow,323,Correct,2015,0
86816f44ef,48,ChoiceTask,Easy,Blue,390,Correct,2015,0
86816f44ef,49,ChoiceTask,Easy,Blue,620,Correct,2015,0
86816f44ef,49,ChoiceTask,Easy,Blue,351,Correct,2015,0
86816f44ef,50,ChoiceTask,Easy,Red,397,Correct,2015,0
86816f44ef,50,ChoiceTask,Easy,Yellow,539,Correct,2015,0
86816f44ef,50,ChoiceTask,Easy,Red,520,Correct,2015,0
86816f44ef,51,ChoiceTask,Easy,Yellow,591,Correct,2015,0
86816f44ef,51,ChoiceTask,Easy,Green,519,Correct,2015,0
86816f44ef,52,ChoiceTask,Easy,Red,518,Correct,2015,0
86816f44ef,52,ChoiceTask,Easy,Yellow,634,Correct,2015,0
86816f44ef,52,ChoiceTask,Easy,Green,510,Correct,2015,0
86816f44ef,52,ChoiceTask,Easy,Green,371,Correct,2015,0
86816f44ef,53,ChoiceTask,Easy,Green,366,Correct,2015,0
86816f44ef,53,ChoiceTask,Easy,Blue,351,Correct,2015,0
86816f44ef,53,ChoiceTask,Easy,Blue,394,Correct,2015,0
86816f44ef,54,ChoiceTask,Easy,Yellow,592,Correct,2015,0
86816f44ef,54,ChoiceTask,Easy,Green,602,Correct,2015,0
86816f44ef,54,ChoiceTask,Easy,Red,335,Correct,2015,0
86816f44ef,54,ChoiceTask,Easy,Yellow,395,Correct,2015,0
86816f44ef,55,ChoiceTask,Easy,Blue,361,Correct,2015,0
86816f44ef,55,ChoiceTask,Easy,Yellow,612,Correct,2015,0
86816f44ef,55,ChoiceTask,Easy,Red,422,Correct,2015,0
86816f44ef,55,ChoiceTask,Easy,Blue,351,Correct,2015,0
86816f44ef,56,ChoiceTask,Easy,Green,623,Correct,2015,0
86816f44ef,56,ChoiceTask,Easy,Blue,434,Correct,2015,0
86816f44ef,56,ChoiceTask,Easy,Yellow,559,Correct,2015,0
86816f44ef,57,ChoiceTask,Easy,Green,583,Correct,2015,0
86816f44ef,57,ChoiceTask,Easy,Red,418,Correct,2015,0
86816f44ef,57,ChoiceTask,Easy,Red,379,Correct,2015,0
86816f44ef,57,ChoiceTask,Easy,Yellow,484,Correct,2015,0
86816f44ef,58,ChoiceTask,Easy,Red,457,Correct,2015,0
86816f44ef,58,ChoiceTask,Easy,Blue,561,Correct,2015,0
86816f44ef,59,ChoiceTask,Easy,Red,518,Correct,2015,0
86816f44ef,59,ChoiceTask,Easy,Blue,569,Correct,2015,0
86816f44ef,59,ChoiceTask,Easy,Blue,448,Correct,2015,0
86816f44ef,59,ChoiceTask,Easy,Green,531,Correct,2015,0
86816f44ef,60,ChoiceTask,Easy,Green,473,Correct,2015,0
86816f44ef,60,ChoiceTask,Easy,Red,545,Correct,2015,0
95d460cf33,2,ChoiceTask,Easy,Green,434,Correct,2015,0
95d460cf33,2,ChoiceTask,Easy,Yellow,819,Correct,2015,0
95d460cf33,2,ChoiceTask,Easy,Yellow,666,Correct,2015,0
95d460cf33,2,ChoiceTask,Easy,Yellow,661,Correct,2015,0
95d460cf33,2,ChoiceTask,Easy,Red,602,Correct,2015,0
95d460cf33,3,ChoiceTask,Easy,Green,435,Correct,2015,0
95d460cf33,3,ChoiceTask,Easy,Yellow,581,Correct,2015,0
95d460cf33,3,ChoiceTask,Easy,Yellow,572,Correct,2015,0
95d460cf33,3,ChoiceTask,Easy,Yellow,563,Correct,2015,0
95d460cf33,3,ChoiceTask,Easy,Yellow,612,Correct,2015,0
95d460cf33,4,ChoiceTask,Easy,Blue,431,Correct,2015,0
95d460cf33,4,ChoiceTask,Easy,Blue,488,Correct,2015,0
95d460cf33,4,ChoiceTask,Easy,Red,475,Correct,2015,0
95d460cf33,4,ChoiceTask,Easy,Green,460,Correct,2015,0
95d460cf33,4,ChoiceTask,Easy,Red,621,Correct,2015,0
95d460cf33,5,ChoiceTask,Easy,Red,452,Correct,2015,0
95d460cf33,5,ChoiceTask,Easy,Yellow,710,Correct,2015,0
95d460cf33,5,ChoiceTask,Easy,Yellow,568,Correct,2015,0
95d460cf33,5,ChoiceTask,Easy,Red,568,Correct,2015,0
95d460cf33,5,ChoiceTask,Easy,Blue,544,Correct,2015,0
95d460cf33,6,ChoiceTask,Easy,Green,502,Correct,2015,0
95d460cf33,6,ChoiceTask,Easy,Green,1006,Correct,2015,0
95d460cf33,6,ChoiceTask,Easy,Red,371,Correct,2015,0
95d460cf33,6,ChoiceTask,Easy,Green,547,Correct,2015,0
95d460cf33,6,ChoiceTask,Easy,Yellow,590,Correct,2015,0
95d460cf33,7,ChoiceTask,Easy,Red,556,Correct,2015,0
95d460cf33,7,ChoiceTask,Easy,Green,759,Correct,2015,0
95d460cf33,7,ChoiceTask,Easy,Blue,931,Correct,2015,0
95d460cf33,7,ChoiceTask,Easy,Green,617,Correct,2015,0
95d460cf33,7,ChoiceTask,Easy,Blue,646,Correct,2015,0
95d460cf33,8,ChoiceTask,Easy,Red,593,Correct,2015,0
95d460cf33,8,ChoiceTask,Easy,Red,682,Correct,2015,0
95d460cf33,8,ChoiceTask,Easy,Green,664,Correct,2015,0
95d460cf33,8,ChoiceTask,Easy,Yellow,673,Correct,2015,0
95d460cf33,8,ChoiceTask,Easy,Blue,484,Correct,2015,0
95d460cf33,9,ChoiceTask,Easy,Blue,821,Correct,2015,0
95d460cf33,9,ChoiceTask,Easy,Green,613,Correct,2015,0
95d460cf33,9,ChoiceTask,Easy,Yellow,550,Correct,2015,0
95d460cf33,9,ChoiceTask,Easy,Blue,608,Correct,2015,0
95d460cf33,10,ChoiceTask,Easy,Yellow,694,Correct,2015,0
95d460cf33,10,ChoiceTask,Easy,Green,564,Correct,2015,0
95d460cf33,10,ChoiceTask,Easy,Red,551,Correct,2015,0
95d460cf33,10,ChoiceTask,Easy,Green,406,Correct,2015,0
95d460cf33,10,ChoiceTask,Easy,Yellow,751,Correct,2015,0
95d460cf33,11,ChoiceTask,Easy,Yellow,640,Correct,2015,0
95d460cf33,11,ChoiceTask,Easy,Green,535,Correct,2015,0
95d460cf33,11,ChoiceTask,Easy,Green,721,Correct,2015,0
95d460cf33,11,ChoiceTask,Easy,Red,562,Correct,2015,0
95d460cf33,11,ChoiceTask,Easy,Red,601,Correct,2015,0
95d460cf33,12,ChoiceTask,Easy,Red,519,Correct,2015,0
95d460cf33,12,ChoiceTask,Easy,Blue,702,Correct,2015,0
95d460cf33,12,ChoiceTask,Easy,Blue,932,Correct,2015,0
95d460cf33,12,ChoiceTask,Easy,Blue,644,Correct,2015,0
95d460cf33,13,ChoiceTask,Easy,Blue,518,Correct,2015,0
95d460cf33,13,ChoiceTask,Easy,Green,422,Correct,2015,0
95d460cf33,13,ChoiceTask,Easy,Red,552,Correct,2015,0
95d460cf33,13,ChoiceTask,Easy,Blue,540,Correct,2015,0
95d460cf33,14,ChoiceTask,Easy,Yellow,684,Correct,2015,0
95d460cf33,14,ChoiceTask,Easy,Red,659,Correct,2015,0
95d460cf33,14,ChoiceTask,Easy,Green,384,Correct,2015,0
95d460cf33,14,ChoiceTask,Easy,Yellow,631,Correct,2015,0
95d460cf33,14,ChoiceTask,Easy,Yellow,465,Correct,2015,0
95d460cf33,15,ChoiceTask,Easy,Yellow,648,Correct,2015,0
95d460cf33,15,ChoiceTask,Easy,Red,485,Correct,2015,0
95d460cf33,15,ChoiceTask,Easy,Blue,384,Correct,2015,0
95d460cf33,15,ChoiceTask,Easy,Red,591,Correct,2015,0
95d460cf33,15,ChoiceTask,Easy,Green,782,Correct,2015,0
95d460cf33,16,ChoiceTask,Easy,Blue,567,Correct,2015,0
95d460cf33,16,ChoiceTask,Easy,Yellow,825,Correct,2015,0
95d460cf33,16,ChoiceTask,Easy,Red,575,Correct,2015,0
95d460cf33,16,ChoiceTask,Easy,Red,489,Correct,2015,0
95d460cf33,16,ChoiceTask,Easy,Green,542,Correct,2015,0
95d460cf33,17,ChoiceTask,Easy,Green,628,Correct,2015,0
95d460cf33,17,ChoiceTask,Easy,Blue,654,Correct,2015,0
95d460cf33,17,ChoiceTask,Easy,Red,497,Correct,2015,0
95d460cf33,17,ChoiceTask,Easy,Blue,674,Correct,2015,0
95d460cf33,17,ChoiceTask,Easy,Green,591,Correct,2015,0
95d460cf33,18,ChoiceTask,Easy,Blue,679,Correct,2015,0
95d460cf33,18,ChoiceTask,Easy,Red,530,Correct,2015,0
95d460cf33,18,ChoiceTask,Easy,Blue,833,Correct,2015,0
95d460cf33,18,ChoiceTask,Easy,Yellow,596,Correct,2015,0
95d460cf33,18,ChoiceTask,Easy,Red,653,Correct,2015,0
95d460cf33,19,ChoiceTask,Easy,Red,553,Correct,2015,0
95d460cf33,19,ChoiceTask,Easy,Blue,607,Correct,2015,0
95d460cf33,19,ChoiceTask,Easy,Yellow,554,Correct,2015,0
95d460cf33,19,ChoiceTask,Easy,Green,624,Correct,2015,0
95d460cf33,19,ChoiceTask,Easy,Blue,585,Correct,2015,0
95d460cf33,20,ChoiceTask,Easy,Yellow,696,Correct,2015,0
95d460cf33,20,ChoiceTask,Easy,Yellow,707,Correct,2015,0
95d460cf33,20,ChoiceTask,Easy,Blue,919,Correct,2015,0
95d460cf33,20,ChoiceTask,Easy,Blue,516,Correct,2015,0
95d460cf33,20,ChoiceTask,Easy,Red,534,Correct,2015,0
95d460cf33,21,ChoiceTask,Easy,Red,432,Correct,2015,0
95d460cf33,21,ChoiceTask,Easy,Red,379,Correct,2015,0
95d460cf33,21,ChoiceTask,Easy,Yellow,648,Correct,2015,0
95d460cf33,21,ChoiceTask,Easy,Blue,522,Correct,2015,0
95d460cf33,21,ChoiceTask,Easy,Blue,596,Correct,2015,0
95d460cf33,22,ChoiceTask,Easy,Red,482,Correct,2015,0
95d460cf33,22,ChoiceTask,Easy,Red,517,Correct,2015,0
95d460cf33,22,ChoiceTask,Easy,Yellow,631,Correct,2015,0
95d460cf33,22,ChoiceTask,Easy,Red,517,Correct,2015,0
95d460cf33,22,ChoiceTask,Easy,Blue,400,Correct,2015,0
95d460cf33,23,ChoiceTask,Easy,Green,769,Correct,2015,0
95d460cf33,23,ChoiceTask,Easy,Blue,527,Correct,2015,0
95d460cf33,23,ChoiceTask,Easy,Green,547,Correct,2015,0
95d460cf33,23,ChoiceTask,Easy,Red,495,Correct,2015,0
95d460cf33,24,ChoiceTask,Easy,Blue,558,Correct,2015,0
95d460cf33,24,ChoiceTask,Easy,Green,392,Correct,2015,0
95d460cf33,24,ChoiceTask,Easy,Green,552,Correct,2015,0
95d460cf33,24,ChoiceTask,Easy,Yellow,716,Correct,2015,0
95d460cf33,24,ChoiceTask,Easy,Yellow,614,Correct,2015,0
95d460cf33,25,ChoiceTask,Easy,Green,616,Correct,2015,0
95d460cf33,25,ChoiceTask,Easy,Green,618,Correct,2015,0
95d460cf33,25,ChoiceTask,Easy,Yellow,602,Correct,2015,0
95d460cf33,25,ChoiceTask,Easy,Yellow,426,Correct,2015,0
95d460cf33,25,ChoiceTask,Easy,Green,668,Correct,2015,0
95d460cf33,26,ChoiceTask,Easy,Blue,603,Correct,2015,0
95d460cf33,26,ChoiceTask,Easy,Yellow,997,Correct,2015,0
95d460cf33,26,ChoiceTask,Easy,Yellow,495,Correct,2015,0
95d460cf33,26,ChoiceTask,Easy,Yellow,584,Correct,2015,0
95d460cf33,27,ChoiceTask,Easy,Yellow,618,Correct,2015,0
95d460cf33,27,ChoiceTask,Easy,Green,807,Correct,2015,0
95d460cf33,27,ChoiceTask,Easy,Blue,557,Correct,2015,0
95d460cf33,27,ChoiceTask,Easy,Yellow,552,Correct,2015,0
95d460cf33,27,ChoiceTask,Easy,Yellow,540,Correct,2015,0
95d460cf33,28,ChoiceTask,Easy,Red,466,Correct,2015,0
95d460cf33,28,ChoiceTask,Easy,Yellow,669,Correct,2015,0
95d460cf33,28,ChoiceTask,Easy,Green,825,Correct,2015,0
95d460cf33,28,ChoiceTask,Easy,Blue,669,Correct,2015,0
95d460cf33,28,ChoiceTask,Easy,Green,700,Correct,2015,0
95d460cf33,29,ChoiceTask,Easy,Red,524,Correct,2015,0
95d460cf33,29,ChoiceTask,Easy,Blue,613,Correct,2015,0
95d460cf33,29,ChoiceTask,Easy,Red,580,Correct,2015,0
95d460cf33,29,ChoiceTask,Easy,Red,664,Correct,2015,0
95d460cf33,29,ChoiceTask,Easy,Red,574,Correct,2015,0
95d460cf33,30,ChoiceTask,Easy,Green,615,Correct,2015,0
95d460cf33,30,ChoiceTask,Easy,Red,373,Correct,2015,0
95d460cf33,30,ChoiceTask,Easy,Red,735,Correct,2015,0
95d460cf33,30,ChoiceTask,Easy,Yellow,628,Correct,2015,0
95d460cf33,30,ChoiceTask,Easy,Red,778,Correct,2015,0
95d460cf33,31,ChoiceTask,Easy,Green,734,Correct,2015,0
95d460cf33,31,ChoiceTask,Easy,Yellow,970,Correct,2015,0
95d460cf33,31,ChoiceTask,Easy,Red,438,Correct,2015,0
95d460cf33,31,ChoiceTask,Easy,Green,755,Correct,2015,0
95d460cf33,31,ChoiceTask,Easy,Yellow,698,Correct,2015,0
95d460cf33,32,ChoiceTask,Easy,Yellow,718,Correct,2015,0
95d460cf33,32,ChoiceTask,Easy,Blue,593,Correct,2015,0
95d460cf33,32,ChoiceTask,Easy,Red,465,Correct,2015,0
95d460cf33,32,ChoiceTask,Easy,Blue,417,Correct,2015,0
95d460cf33,32,ChoiceTask,Easy,Red,547,Correct,2015,0
95d460cf33,33,ChoiceTask,Easy,Yellow,605,Correct,2015,0
95d460cf33,33,ChoiceTask,Easy,Red,561,Correct,2015,0
95d460cf33,33,ChoiceTask,Easy,Green,652,Correct,2015,0
95d460cf33,34,ChoiceTask,Easy,Yellow,614,Correct,2015,0
95d460cf33,34,ChoiceTask,Easy,Blue,552,Correct,2015,0
95d460cf33,34,ChoiceTask,Easy,Green,636,Correct,2015,0
95d460cf33,35,ChoiceTask,Easy,Green,396,Correct,2015,0
95d460cf33,35,ChoiceTask,Easy,Yellow,522,Correct,2015,0
95d460cf33,35,ChoiceTask,Easy,Blue,990,Correct,2015,0
95d460cf33,35,ChoiceTask,Easy,Red,564,Correct,2015,0
95d460cf33,35,ChoiceTask,Easy,Blue,686,Correct,2015,0
95d460cf33,36,ChoiceTask,Easy,Yellow,601,Correct,2015,0
95d460cf33,36,ChoiceTask,Easy,Green,616,Correct,2015,0
95d460cf33,36,ChoiceTask,Easy,Blue,530,Correct,2015,0
95d460cf33,36,ChoiceTask,Easy,Green,847,Correct,2015,0
95d460cf33,36,ChoiceTask,Easy,Blue,655,Correct,2015,0
95d460cf33,37,ChoiceTask,Easy,Blue,752,Correct,2015,0
95d460cf33,37,ChoiceTask,Easy,Blue,635,Correct,2015,0
95d460cf33,37,ChoiceTask,Easy,Blue,531,Correct,2015,0
95d460cf33,37,ChoiceTask,Easy,Red,489,Correct,2015,0
95d460cf33,37,ChoiceTask,Easy,Red,624,Correct,2015,0
95d460cf33,38,ChoiceTask,Easy,Blue,510,Correct,2015,0
95d460cf33,38,ChoiceTask,Easy,Blue,890,Correct,2015,0
95d460cf33,38,ChoiceTask,Easy,Yellow,695,Correct,2015,0
95d460cf33,38,ChoiceTask,Easy,Blue,482,Correct,2015,0
95d460cf33,39,ChoiceTask,Easy,Blue,474,Correct,2015,0
95d460cf33,39,ChoiceTask,Easy,Red,530,Correct,2015,0
95d460cf33,39,ChoiceTask,Easy,Green,560,Correct,2015,0
95d460cf33,39,ChoiceTask,Easy,Blue,462,Correct,2015,0
95d460cf33,40,ChoiceTask,Easy,Red,585,Correct,2015,0
95d460cf33,40,ChoiceTask,Easy,Yellow,719,Correct,2015,0
95d460cf33,40,ChoiceTask,Easy,Blue,482,Correct,2015,0
95d460cf33,40,ChoiceTask,Easy,Green,500,Correct,2015,0
95d460cf33,40,ChoiceTask,Easy,Yellow,658,Correct,2015,0
95d460cf33,41,ChoiceTask,Easy,Yellow,768,Correct,2015,0
95d460cf33,41,ChoiceTask,Easy,Yellow,620,Correct,2015,0
95d460cf33,41,ChoiceTask,Easy,Blue,738,Correct,2015,0
95d460cf33,41,ChoiceTask,Easy,Red,358,Correct,2015,0
95d460cf33,41,ChoiceTask,Easy,Green,735,Correct,2015,0
95d460cf33,42,ChoiceTask,Easy,Green,853,Correct,2015,0
95d460cf33,42,ChoiceTask,Easy,Red,543,Correct,2015,0
95d460cf33,42,ChoiceTask,Easy,Blue,551,Correct,2015,0
95d460cf33,42,ChoiceTask,Easy,Red,436,Correct,2015,0
95d460cf33,42,ChoiceTask,Easy,Red,731,Correct,2015,0
95d460cf33,43,ChoiceTask,Easy,Blue,460,Correct,2015,0
95d460cf33,43,ChoiceTask,Easy,Yellow,518,Correct,2015,0
95d460cf33,43,ChoiceTask,Easy,Yellow,635,Correct,2015,0
95d460cf33,43,ChoiceTask,Easy,Blue,615,Correct,2015,0
95d460cf33,43,ChoiceTask,Easy,Red,452,Correct,2015,0
95d460cf33,44,ChoiceTask,Easy,Green,785,Correct,2015,0
95d460cf33,44,ChoiceTask,Easy,Green,690,Correct,2015,0
95d460cf33,44,ChoiceTask,Easy,Red,568,Correct,2015,0
95d460cf33,44,ChoiceTask,Easy,Yellow,703,Correct,2015,0
95d460cf33,45,ChoiceTask,Easy,Green,549,Correct,2015,0
95d460cf33,45,ChoiceTask,Easy,Red,524,Correct,2015,0
95d460cf33,45,ChoiceTask,Easy,Yellow,650,Correct,2015,0
95d460cf33,45,ChoiceTask,Easy,Green,750,Correct,2015,0
95d460cf33,45,ChoiceTask,Easy,Blue,786,Correct,2015,0
95d460cf33,46,ChoiceTask,Easy,Yellow,618,Correct,2015,0
95d460cf33,46,ChoiceTask,Easy,Red,498,Correct,2015,0
95d460cf33,46,ChoiceTask,Easy,Green,935,Correct,2015,0
95d460cf33,46,ChoiceTask,Easy,Green,493,Correct,2015,0
95d460cf33,46,ChoiceTask,Easy,Yellow,686,Correct,2015,0
95d460cf33,47,ChoiceTask,Easy,Yellow,714,Correct,2015,0
95d460cf33,47,ChoiceTask,Easy,Green,640,Correct,2015,0
95d460cf33,47,ChoiceTask,Easy,Green,478,Correct,2015,0
95d460cf33,47,ChoiceTask,Easy,Red,574,Correct,2015,0
95d460cf33,47,ChoiceTask,Easy,Yellow,474,Correct,2015,0
95d460cf33,48,ChoiceTask,Easy,Red,869,Correct,2015,0
95d460cf33,48,ChoiceTask,Easy,Red,631,Correct,2015,0
95d460cf33,48,ChoiceTask,Easy,Red,540,Correct,2015,0
95d460cf33,48,ChoiceTask,Easy,Blue,644,Correct,2015,0
95d460cf33,49,ChoiceTask,Easy,Blue,536,Correct,2015,0
95d460cf33,49,ChoiceTask,Easy,Blue,613,Correct,2015,0
95d460cf33,49,ChoiceTask,Easy,Red,538,Correct,2015,0
95d460cf33,49,ChoiceTask,Easy,Green,701,Correct,2015,0
95d460cf33,49,ChoiceTask,Easy,Red,607,Correct,2015,0
95d460cf33,50,ChoiceTask,Easy,Red,622,Correct,2015,0
95d460cf33,50,ChoiceTask,Easy,Yellow,585,Correct,2015,0
95d460cf33,50,ChoiceTask,Easy,Green,636,Correct,2015,0
95d460cf33,50,ChoiceTask,Easy,Blue,557,Correct,2015,0
95d460cf33,50,ChoiceTask,Easy,Green,647,Correct,2015,0
95d460cf33,51,ChoiceTask,Easy,Yellow,653,Correct,2015,0
95d460cf33,51,ChoiceTask,Easy,Green,652,Correct,2015,0
95d460cf33,51,ChoiceTask,Easy,Red,521,Correct,2015,0
95d460cf33,51,ChoiceTask,Easy,Green,794,Correct,2015,0
95d460cf33,51,ChoiceTask,Easy,Green,393,Correct,2015,0
95d460cf33,52,ChoiceTask,Easy,Red,579,Correct,2015,0
95d460cf33,52,ChoiceTask,Easy,Yellow,652,Correct,2015,0
95d460cf33,52,ChoiceTask,Easy,Green,568,Correct,2015,0
95d460cf33,52,ChoiceTask,Easy,Blue,569,Correct,2015,0
95d460cf33,52,ChoiceTask,Easy,Yellow,571,Correct,2015,0
95d460cf33,53,ChoiceTask,Easy,Red,527,Correct,2015,0
95d460cf33,53,ChoiceTask,Easy,Blue,768,Correct,2015,0
95d460cf33,53,ChoiceTask,Easy,Green,571,Correct,2015,0
95d460cf33,53,ChoiceTask,Easy,Blue,559,Correct,2015,0
95d460cf33,53,ChoiceTask,Easy,Blue,651,Correct,2015,0
95d460cf33,54,ChoiceTask,Easy,Blue,852,Correct,2015,0
95d460cf33,54,ChoiceTask,Easy,Blue,636,Correct,2015,0
95d460cf33,54,ChoiceTask,Easy,Blue,647,Correct,2015,0
95d460cf33,54,ChoiceTask,Easy,Red,562,Correct,2015,0
95d460cf33,54,ChoiceTask,Easy,Red,508,Correct,2015,0
95d460cf33,55,ChoiceTask,Easy,Green,504,Correct,2015,0
95d460cf33,55,ChoiceTask,Easy,Blue,674,Correct,2015,0
95d460cf33,55,ChoiceTask,Easy,Blue,539,Correct,2015,0
95d460cf33,55,ChoiceTask,Easy,Yellow,680,Correct,2015,0
95d460cf33,55,ChoiceTask,Easy,Yellow,652,Correct,2015,0
95d460cf33,56,ChoiceTask,Easy,Blue,780,Correct,2015,0
95d460cf33,56,ChoiceTask,Easy,Red,644,Correct,2015,0
95d460cf33,56,ChoiceTask,Easy,Yellow,723,Correct,2015,0
95d460cf33,56,ChoiceTask,Easy,Red,787,Correct,2015,0
95d460cf33,56,ChoiceTask,Easy,Red,573,Correct,2015,0
95d460cf33,57,ChoiceTask,Easy,Green,702,Correct,2015,0
95d460cf33,57,ChoiceTask,Easy,Yellow,898,Correct,2015,0
95d460cf33,57,ChoiceTask,Easy,Yellow,786,Correct,2015,0
95d460cf33,57,ChoiceTask,Easy,Green,719,Correct,2015,0
95d460cf33,57,ChoiceTask,Easy,Yellow,585,Correct,2015,0
95d460cf33,58,ChoiceTask,Easy,Red,617,Correct,2015,0
95d460cf33,58,ChoiceTask,Easy,Green,835,Correct,2015,0
95d460cf33,58,ChoiceTask,Easy,Blue,855,Correct,2015,0
95d460cf33,58,ChoiceTask,Easy,Yellow,604,Correct,2015,0
95d460cf33,58,ChoiceTask,Easy,Green,581,Correct,2015,0
95d460cf33,59,ChoiceTask,Easy,Blue,585,Correct,2015,0
95d460cf33,59,ChoiceTask,Easy,Green,730,Correct,2015,0
95d460cf33,59,ChoiceTask,Easy,Red,599,Correct,2015,0
95d460cf33,59,ChoiceTask,Easy,Yellow,521,Correct,2015,0
95d460cf33,59,ChoiceTask,Easy,Green,515,Correct,2015,0
95d460cf33,60,ChoiceTask,Easy,Yellow,591,Correct,2015,0
95d460cf33,60,ChoiceTask,Easy,Blue,569,Correct,2015,0
95d460cf33,60,ChoiceTask,Easy,Yellow,816,Correct,2015,0
95d460cf33,60,ChoiceTask,Easy,Yellow,394,Correct,2015,0
95d460cf33,60,ChoiceTask,Easy,Blue,551,Correct,2015,0
985d1d0e2f,2,ChoiceTask,Easy,Blue,483,Correct,2014,0
985d1d0e2f,3,ChoiceTask,Easy,Green,450,Correct,2014,0
985d1d0e2f,4,ChoiceTask,Easy,Blue,533,Correct,2014,0
985d1d0e2f,5,ChoiceTask,Easy,Red,583,Correct,2014,0
985d1d0e2f,7,ChoiceTask,Easy,Green,416,Correct,2014,0
985d1d0e2f,8,ChoiceTask,Easy,Yellow,650,Correct,2014,0
985d1d0e2f,9,ChoiceTask,Easy,Yellow,583,Correct,2014,0
985d1d0e2f,10,ChoiceTask,Easy,Red,350,Correct,2014,0
985d1d0e2f,11,ChoiceTask,Easy,Yellow,566,Correct,2014,0
985d1d0e2f,12,ChoiceTask,Easy,Yellow,533,Correct,2014,0
985d1d0e2f,13,ChoiceTask,Easy,Green,700,Correct,2014,0
985d1d0e2f,14,ChoiceTask,Easy,Red,450,Correct,2014,0
985d1d0e2f,15,ChoiceTask,Easy,Blue,650,Correct,2014,0
985d1d0e2f,16,ChoiceTask,Easy,Red,400,Correct,2014,0
985d1d0e2f,17,ChoiceTask,Easy,Blue,700,Correct,2014,0
985d1d0e2f,18,ChoiceTask,Easy,Yellow,400,Correct,2014,0
985d1d0e2f,19,ChoiceTask,Easy,Green,600,Correct,2014,0
985d1d0e2f,20,ChoiceTask,Easy,Red,566,Correct,2014,0
985d1d0e2f,21,ChoiceTask,Easy,Blue,616,Correct,2014,0
985d1d0e2f,22,ChoiceTask,Easy,Green,583,Correct,2014,0
985d1d0e2f,23,ChoiceTask,Easy,Green,700,Correct,2014,0
985d1d0e2f,24,ChoiceTask,Easy,Red,666,Correct,2014,0
985d1d0e2f,25,ChoiceTask,Easy,Green,600,Correct,2014,0
985d1d0e2f,26,ChoiceTask,Easy,Yellow,716,Correct,2014,0
985d1d0e2f,27,ChoiceTask,Easy,Red,516,Correct,2014,0
985d1d0e2f,28,ChoiceTask,Easy,Green,733,Correct,2014,0
985d1d0e2f,29,ChoiceTask,Easy,Red,683,Correct,2014,0
9b97ca5600,2,ChoiceTask,Easy,Green,607,Correct,2015,0
9b97ca5600,2,ChoiceTask,Easy,Green,585,Correct,2015,0
9b97ca5600,2,ChoiceTask,Easy,Green,563,Correct,2015,0
9b97ca5600,3,ChoiceTask,Easy,Yellow,591,Correct,2015,0
9b97ca5600,3,ChoiceTask,Easy,Yellow,451,Correct,2015,0
9b97ca5600,3,ChoiceTask,Easy,Blue,364,Correct,2015,0
9b97ca5600,3,ChoiceTask,Easy,Red,480,Correct,2015,0
9b97ca5600,4,ChoiceTask,Easy,Yellow,575,Correct,2015,0
9b97ca5600,4,ChoiceTask,Easy,Blue,551,Correct,2015,0
9b97ca5600,4,ChoiceTask,Easy,Red,368,Correct,2015,0
9b97ca5600,4,ChoiceTask,Easy,Green,567,Correct,2015,0
9b97ca5600,5,ChoiceTask,Easy,Green,785,Correct,2015,0
9b97ca5600,5,ChoiceTask,Easy,Yellow,596,Correct,2015,0
9b97ca5600,5,ChoiceTask,Easy,Red,471,Correct,2015,0
9b97ca5600,5,ChoiceTask,Easy,Yellow,477,Correct,2015,0
9b97ca5600,6,ChoiceTask,Easy,Red,577,Correct,2015,0
9b97ca5600,6,ChoiceTask,Easy,Blue,495,Correct,2015,0
9b97ca5600,6,ChoiceTask,Easy,Yellow,536,Correct,2015,0
9b97ca5600,6,ChoiceTask,Easy,Green,582,Correct,2015,0
9b97ca5600,7,ChoiceTask,Easy,Green,485,Correct,2015,0
9b97ca5600,7,ChoiceTask,Easy,Yellow,582,Correct,2015,0
9b97ca5600,7,ChoiceTask,Easy,Blue,620,Correct,2015,0
9b97ca5600,8,ChoiceTask,Easy,Blue,598,Correct,2015,0
9b97ca5600,8,ChoiceTask,Easy,Red,435,Correct,2015,0
9b97ca5600,8,ChoiceTask,Easy,Red,492,Correct,2015,0
9b97ca5600,8,ChoiceTask,Easy,Green,631,Correct,2015,0
9b97ca5600,9,ChoiceTask,Easy,Blue,612,Correct,2015,0
9b97ca5600,9,ChoiceTask,Easy,Red,557,Correct,2015,0
9b97ca5600,9,ChoiceTask,Easy,Red,512,Correct,2015,0
9b97ca5600,10,ChoiceTask,Easy,Blue,519,Correct,2015,0
9b97ca5600,10,ChoiceTask,Easy,Green,619,Correct,2015,0
9b97ca5600,10,ChoiceTask,Easy,Red,544,Correct,2015,0
9b97ca5600,11,ChoiceTask,Easy,Red,566,Correct,2015,0
9b97ca5600,11,ChoiceTask,Easy,Green,530,Correct,2015,0
9b97ca5600,11,ChoiceTask,Easy,Blue,506,Correct,2015,0
9b97ca5600,12,ChoiceTask,Easy,Blue,674,Correct,2015,0
9b97ca5600,12,ChoiceTask,Easy,Red,484,Correct,2015,0
9b97ca5600,12,ChoiceTask,Easy,Green,492,Correct,2015,0
9b97ca5600,12,ChoiceTask,Easy,Green,414,Correct,2015,0
9b97ca5600,13,ChoiceTask,Easy,Yellow,562,Correct,2015,0
9b97ca5600,13,ChoiceTask,Easy,Yellow,572,Correct,2015,0
9b97ca5600,13,ChoiceTask,Easy,Green,427,Correct,2015,0
9b97ca5600,13,ChoiceTask,Easy,Blue,408,Correct,2015,0
9b97ca5600,14,ChoiceTask,Easy,Blue,556,Correct,2015,0
9b97ca5600,14,ChoiceTask,Easy,Yellow,670,Correct,2015,0
9b97ca5600,14,ChoiceTask,Easy,Blue,611,Correct,2015,0
9b97ca5600,14,ChoiceTask,Easy,Blue,408,Correct,2015,0
9b97ca5600,15,ChoiceTask,Easy,Green,503,Correct,2015,0
9b97ca5600,15,ChoiceTask,Easy,Green,740,Correct,2015,0
9b97ca5600,15,ChoiceTask,Easy,Yellow,569,Correct,2015,0
9b97ca5600,16,ChoiceTask,Easy,Red,495,Correct,2015,0
9b97ca5600,16,ChoiceTask,Easy,Red,581,Correct,2015,0
9b97ca5600,16,ChoiceTask,Easy,Blue,619,Correct,2015,0
9b97ca5600,17,ChoiceTask,Easy,Yellow,529,Correct,2015,0
9b97ca5600,17,ChoiceTask,Easy,Blue,705,Correct,2015,0
9b97ca5600,17,ChoiceTask,Easy,Yellow,513,Correct,2015,0
9b97ca5600,17,ChoiceTask,Easy,Yellow,695,Correct,2015,0
9b97ca5600,18,ChoiceTask,Easy,Green,451,Correct,2015,0
9b97ca5600,18,ChoiceTask,Easy,Blue,586,Correct,2015,0
9b97ca5600,18,ChoiceTask,Easy,Red,506,Correct,2015,0
9b97ca5600,19,ChoiceTask,Easy,Yellow,851,Correct,2015,0
9b97ca5600,19,ChoiceTask,Easy,Red,472,Correct,2015,0
9b97ca5600,19,ChoiceTask,Easy,Green,530,Correct,2015,0
9b97ca5600,19,ChoiceTask,Easy,Yellow,533,Correct,2015,0
9b97ca5600,20,ChoiceTask,Easy,Yellow,702,Correct,2015,0
9b97ca5600,20,ChoiceTask,Easy,Yellow,533,Correct,2015,0
9b97ca5600,20,ChoiceTask,Easy,Yellow,714,Correct,2015,0
9b97ca5600,21,ChoiceTask,Easy,Red,447,Correct,2015,0
9b97ca5600,21,ChoiceTask,Easy,Red,586,Correct,2015,0
9b97ca5600,21,ChoiceTask,Easy,Red,356,Correct,2015,0
9b97ca5600,22,ChoiceTask,Easy,Yellow,710,Correct,2015,0
9b97ca5600,22,ChoiceTask,Easy,Green,539,Correct,2015,0
9b97ca5600,22,ChoiceTask,Easy,Red,551,Correct,2015,0
9b97ca5600,23,ChoiceTask,Easy,Yellow,669,Correct,2015,0
9b97ca5600,23,ChoiceTask,Easy,Yellow,496,Correct,2015,0
9b97ca5600,23,ChoiceTask,Easy,Blue,406,Correct,2015,0
9b97ca5600,23,ChoiceTask,Easy,Yellow,773,Correct,2015,0
9b97ca5600,24,ChoiceTask,Easy,Green,713,Correct,2015,0
9b97ca5600,24,ChoiceTask,Easy,Red,452,Correct,2015,0
9b97ca5600,24,ChoiceTask,Easy,Yellow,490,Correct,2015,0
9b97ca5600,24,ChoiceTask,Easy,Red,535,Correct,2015,0
9b97ca5600,25,ChoiceTask,Easy,Red,518,Correct,2015,0
9b97ca5600,25,ChoiceTask,Easy,Blue,431,Correct,2015,0
9b97ca5600,25,ChoiceTask,Easy,Yellow,532,Correct,2015,0
9b97ca5600,25,ChoiceTask,Easy,Red,587,Correct,2015,0
9b97ca5600,26,ChoiceTask,Easy,Blue,681,Correct,2015,0
9b97ca5600,26,ChoiceTask,Easy,Red,565,Correct,2015,0
9b97ca5600,26,ChoiceTask,Easy,Green,597,Correct,2015,0
9b97ca5600,26,ChoiceTask,Easy,Green,636,Correct,2015,0
9b97ca5600,27,ChoiceTask,Easy,Yellow,635,Correct,2015,0
9b97ca5600,27,ChoiceTask,Easy,Yellow,601,Correct,2015,0
9b97ca5600,27,ChoiceTask,Easy,Red,812,Correct,2015,0
9b97ca5600,27,ChoiceTask,Easy,Blue,396,Correct,2015,0
9b97ca5600,28,ChoiceTask,Easy,Yellow,508,Correct,2015,0
9b97ca5600,28,ChoiceTask,Easy,Red,552,Correct,2015,0
9b97ca5600,28,ChoiceTask,Easy,Blue,590,Correct,2015,0
9b97ca5600,29,ChoiceTask,Easy,Green,639,Correct,2015,0
9b97ca5600,29,ChoiceTask,Easy,Red,481,Correct,2015,0
9b97ca5600,29,ChoiceTask,Easy,Blue,399,Correct,2015,0
9b97ca5600,29,ChoiceTask,Easy,Yellow,541,Correct,2015,0
9b97ca5600,30,ChoiceTask,Easy,Red,454,Correct,2015,0
9b97ca5600,30,ChoiceTask,Easy,Green,769,Correct,2015,0
9b97ca5600,30,ChoiceTask,Easy,Green,593,Correct,2015,0
9b97ca5600,30,ChoiceTask,Easy,Blue,584,Correct,2015,0
9b97ca5600,31,ChoiceTask,Easy,Blue,503,Correct,2015,0
9b97ca5600,31,ChoiceTask,Easy,Red,613,Correct,2015,0
9b97ca5600,31,ChoiceTask,Easy,Blue,534,Correct,2015,0
9b97ca5600,31,ChoiceTask,Easy,Green,596,Correct,2015,0
9b97ca5600,32,ChoiceTask,Easy,Yellow,535,Correct,2015,0
9b97ca5600,32,ChoiceTask,Easy,Green,497,Correct,2015,0
9b97ca5600,32,ChoiceTask,Easy,Blue,542,Correct,2015,0
9b97ca5600,32,ChoiceTask,Easy,Green,479,Correct,2015,0
9b97ca5600,33,ChoiceTask,Easy,Blue,549,Correct,2015,0
9b97ca5600,33,ChoiceTask,Easy,Blue,468,Correct,2015,0
9b97ca5600,33,ChoiceTask,Easy,Red,420,Correct,2015,0
9b97ca5600,33,ChoiceTask,Easy,Yellow,592,Correct,2015,0
9b97ca5600,34,ChoiceTask,Easy,Green,485,Correct,2015,0
9b97ca5600,34,ChoiceTask,Easy,Green,442,Correct,2015,0
9b97ca5600,34,ChoiceTask,Easy,Blue,715,Correct,2015,0
9b97ca5600,35,ChoiceTask,Easy,Red,408,Correct,2015,0
9b97ca5600,35,ChoiceTask,Easy,Blue,539,Correct,2015,0
9b97ca5600,35,ChoiceTask,Easy,Blue,568,Correct,2015,0
9b97ca5600,35,ChoiceTask,Easy,Green,636,Correct,2015,0
9b97ca5600,36,ChoiceTask,Easy,Green,563,Correct,2015,0
9b97ca5600,36,ChoiceTask,Easy,Yellow,719,Correct,2015,0
9b97ca5600,36,ChoiceTask,Easy,Yellow,548,Correct,2015,0
9b97ca5600,36,ChoiceTask,Easy,Yellow,535,Correct,2015,0
9b97ca5600,37,ChoiceTask,Easy,Yellow,522,Correct,2015,0
9b97ca5600,37,ChoiceTask,Easy,Red,541,Correct,2015,0
9b97ca5600,37,ChoiceTask,Easy,Red,636,Correct,2015,0
9b97ca5600,38,ChoiceTask,Easy,Blue,351,Correct,2015,0
9b97ca5600,38,ChoiceTask,Easy,Green,435,Correct,2015,0
9b97ca5600,38,ChoiceTask,Easy,Red,611,Correct,2015,0
9b97ca5600,38,ChoiceTask,Easy,Yellow,569,Correct,2015,0
9b97ca5600,39,ChoiceTask,Easy,Red,594,Correct,2015,0
9b97ca5600,39,ChoiceTask,Easy,Yellow,547,Correct,2015,0
9b97ca5600,39,ChoiceTask,Easy,Yellow,718,Correct,2015,0
9b97ca5600,39,ChoiceTask,Easy,Blue,458,Correct,2015,0
9b97ca5600,40,ChoiceTask,Easy,Green,641,Correct,2015,0
9b97ca5600,40,ChoiceTask,Easy,Blue,516,Correct,2015,0
9b97ca5600,40,ChoiceTask,Easy,Green,697,Correct,2015,0
9b97ca5600,40,ChoiceTask,Easy,Green,716,Correct,2015,0
9b97ca5600,41,ChoiceTask,Easy,Red,487,Correct,2015,0
9b97ca5600,41,ChoiceTask,Easy,Green,635,Correct,2015,0
9b97ca5600,41,ChoiceTask,Easy,Yellow,542,Correct,2015,0
9b97ca5600,42,ChoiceTask,Easy,Blue,557,Correct,2015,0
9b97ca5600,42,ChoiceTask,Easy,Yellow,570,Correct,2015,0
9b97ca5600,42,ChoiceTask,Easy,Yellow,638,Correct,2015,0
9b97ca5600,42,ChoiceTask,Easy,Blue,444,Correct,2015,0
9b97ca5600,43,ChoiceTask,Easy,Red,552,Correct,2015,0
9b97ca5600,43,ChoiceTask,Easy,Yellow,627,Correct,2015,0
9b97ca5600,43,ChoiceTask,Easy,Red,530,Correct,2015,0
9b97ca5600,43,ChoiceTask,Easy,Green,431,Correct,2015,0
9b97ca5600,44,ChoiceTask,Easy,Green,375,Correct,2015,0
9b97ca5600,44,ChoiceTask,Easy,Green,668,Correct,2015,0
9b97ca5600,44,ChoiceTask,Easy,Red,504,Correct,2015,0
9b97ca5600,44,ChoiceTask,Easy,Blue,498,Correct,2015,0
9b97ca5600,45,ChoiceTask,Easy,Green,552,Correct,2015,0
9b97ca5600,45,ChoiceTask,Easy,Green,531,Correct,2015,0
9b97ca5600,45,ChoiceTask,Easy,Blue,581,Correct,2015,0
9b97ca5600,45,ChoiceTask,Easy,Green,753,Correct,2015,0
9b97ca5600,46,ChoiceTask,Easy,Blue,501,Correct,2015,0
9b97ca5600,46,ChoiceTask,Easy,Red,469,Correct,2015,0
9b97ca5600,46,ChoiceTask,Easy,Green,582,Correct,2015,0
9b97ca5600,46,ChoiceTask,Easy,Red,427,Correct,2015,0
9b97ca5600,47,ChoiceTask,Easy,Blue,519,Correct,2015,0
9b97ca5600,47,ChoiceTask,Easy,Green,481,Correct,2015,0
9b97ca5600,47,ChoiceTask,Easy,Green,435,Correct,2015,0
9b97ca5600,47,ChoiceTask,Easy,Yellow,520,Correct,2015,0
9b97ca5600,48,ChoiceTask,Easy,Yellow,485,Correct,2015,0
9b97ca5600,48,ChoiceTask,Easy,Blue,641,Correct,2015,0
9b97ca5600,48,ChoiceTask,Easy,Red,540,Correct,2015,0
9b97ca5600,48,ChoiceTask,Easy,Blue,335,Correct,2015,0
9b97ca5600,49,ChoiceTask,Easy,Green,734,Correct,2015,0
9b97ca5600,49,ChoiceTask,Easy,Blue,573,Correct,2015,0
9b97ca5600,49,ChoiceTask,Easy,Blue,406,Correct,2015,0
9b97ca5600,49,ChoiceTask,Easy,Red,552,Correct,2015,0
9b97ca5600,50,ChoiceTask,Easy,Red,521,Correct,2015,0
9b97ca5600,50,ChoiceTask,Easy,Green,495,Correct,2015,0
9b97ca5600,50,ChoiceTask,Easy,Red,498,Correct,2015,0
9b97ca5600,51,ChoiceTask,Easy,Blue,538,Correct,2015,0
9b97ca5600,51,ChoiceTask,Easy,Red,548,Correct,2015,0
9b97ca5600,51,ChoiceTask,Easy,Yellow,573,Correct,2015,0
9b97ca5600,51,ChoiceTask,Easy,Green,577,Correct,2015,0
9b97ca5600,52,ChoiceTask,Easy,Yellow,622,Correct,2015,0
9b97ca5600,52,ChoiceTask,Easy,Blue,585,Correct,2015,0
9b97ca5600,52,ChoiceTask,Easy,Blue,641,Correct,2015,0
9b97ca5600,52,ChoiceTask,Easy,Yellow,497,Correct,2015,0
9b97ca5600,53,ChoiceTask,Easy,Yellow,540,Correct,2015,0
9b97ca5600,53,ChoiceTask,Easy,Yellow,534,Correct,2015,0
9b97ca5600,53,ChoiceTask,Easy,Green,750,Correct,2015,0
9b97ca5600,54,ChoiceTask,Easy,Yellow,546,Correct,2015,0
9b97ca5600,54,ChoiceTask,Easy,Yellow,546,Correct,2015,0
9b97ca5600,54,ChoiceTask,Easy,Green,630,Correct,2015,0
9b97ca5600,54,ChoiceTask,Easy,Red,457,Correct,2015,0
9b97ca5600,55,ChoiceTask,Easy,Green,853,Correct,2015,0
9b97ca5600,55,ChoiceTask,Easy,Yellow,647,Correct,2015,0
9b97ca5600,55,ChoiceTask,Easy,Yellow,567,Correct,2015,0
9b97ca5600,56,ChoiceTask,Easy,Green,830,Correct,2015,0
9b97ca5600,56,ChoiceTask,Easy,Blue,604,Correct,2015,0
9b97ca5600,56,ChoiceTask,Easy,Blue,577,Correct,2015,0
9b97ca5600,57,ChoiceTask,Easy,Blue,401,Correct,2015,0
9b97ca5600,57,ChoiceTask,Easy,Red,572,Correct,2015,0
9b97ca5600,57,ChoiceTask,Easy,Blue,472,Correct,2015,0
9b97ca5600,57,ChoiceTask,Easy,Red,441,Correct,2015,0
9b97ca5600,58,ChoiceTask,Easy,Red,692,Correct,2015,0
9b97ca5600,58,ChoiceTask,Easy,Red,623,Correct,2015,0
9b97ca5600,58,ChoiceTask,Easy,Red,547,Correct,2015,0
9b97ca5600,59,ChoiceTask,Easy,Red,478,Correct,2015,0
9b97ca5600,59,ChoiceTask,Easy,Green,498,Correct,2015,0
9b97ca5600,59,ChoiceTask,Easy,Green,568,Correct,2015,0
9b97ca5600,59,ChoiceTask,Easy,Yellow,662,Correct,2015,0
9b97ca5600,60,ChoiceTask,Easy,Yellow,635,Correct,2015,0
9b97ca5600,60,ChoiceTask,Easy,Yellow,518,Correct,2015,0
9b97ca5600,60,ChoiceTask,Easy,Blue,472,Correct,2015,0
b21262ad33,2,ChoiceTask,Easy,Red,666,Correct,2014,0
b21262ad33,3,ChoiceTask,Easy,Green,916,Correct,2014,0
b21262ad33,4,ChoiceTask,Easy,Yellow,733,Correct,2014,0
b21262ad33,5,ChoiceTask,Easy,Yellow,533,Correct,2014,0
b21262ad33,6,ChoiceTask,Easy,Yellow,550,Correct,2014,0
b21262ad33,7,ChoiceTask,Easy,Red,500,Correct,2014,0
b21262ad33,8,ChoiceTask,Easy,Yellow,666,Correct,2014,0
b21262ad33,9,ChoiceTask,Easy,Blue,650,Correct,2014,0
b21262ad33,10,ChoiceTask,Easy,Blue,666,Correct,2014,0
b21262ad33,11,ChoiceTask,Easy,Red,616,Correct,2014,0
b21262ad33,12,ChoiceTask,Easy,Green,950,Correct,2014,0
b21262ad33,13,ChoiceTask,Easy,Yellow,600,Correct,2014,0
b21262ad33,14,ChoiceTask,Easy,Blue,883,Correct,2014,0
b21262ad33,15,ChoiceTask,Easy,Green,533,Correct,2014,0
b21262ad33,16,ChoiceTask,Easy,Blue,816,Correct,2014,0
b21262ad33,17,ChoiceTask,Easy,Blue,500,Correct,2014,0
b21262ad33,19,ChoiceTask,Easy,Red,683,Correct,2014,0
b21262ad33,20,ChoiceTask,Easy,Yellow,683,Correct,2014,0
b21262ad33,21,ChoiceTask,Easy,Green,683,Correct,2014,0
b21262ad33,22,ChoiceTask,Easy,Blue,850,Correct,2014,0
b21262ad33,23,ChoiceTask,Easy,Yellow,750,Correct,2014,0
b21262ad33,24,ChoiceTask,Easy,Red,600,Correct,2014,0
b21262ad33,25,ChoiceTask,Easy,Yellow,766,Correct,2014,0
b21262ad33,26,ChoiceTask,Easy,Yellow,550,Correct,2014,0
b21262ad33,27,ChoiceTask,Easy,Green,700,Correct,2014,0
b21262ad33,28,ChoiceTask,Easy,Yellow,666,Correct,2014,0
b21262ad33,29,ChoiceTask,Easy,Green,616,Correct,2014,0
b442537ec3,2,ChoiceTask,Easy,Green,833,Correct,2014,0
b442537ec3,3,ChoiceTask,Easy,Red,383,Correct,2014,0
b442537ec3,4,ChoiceTask,Easy,Yellow,500,Correct,2014,0
b442537ec3,5,ChoiceTask,Easy,Yellow,750,Correct,2014,0
b442537ec3,6,ChoiceTask,Easy,Blue,2600,Correct,2014,0
b442537ec3,7,ChoiceTask,Easy,Green,1233,Correct,2014,0
b442537ec3,8,ChoiceTask,Easy,Yellow,1750,Correct,2014,0
b442537ec3,9,ChoiceTask,Easy,Red,1066,Correct,2014,0
b442537ec3,11,ChoiceTask,Easy,Green,1133,Correct,2014,0
b442537ec3,12,ChoiceTask,Easy,Green,750,Correct,2014,0
b442537ec3,13,ChoiceTask,Easy,Blue,966,Correct,2014,0
b442537ec3,14,ChoiceTask,Easy,Blue,633,Correct,2014,0
b442537ec3,15,ChoiceTask,Easy,Blue,683,Correct,2014,0
b442537ec3,16,ChoiceTask,Easy,Blue,566,Correct,2014,0
b442537ec3,17,ChoiceTask,Easy,Blue,400,Correct,2014,0
b442537ec3,18,ChoiceTask,Easy,Green,566,Correct,2014,0
b442537ec3,19,ChoiceTask,Easy,Green,416,Correct,2014,0
b442537ec3,20,ChoiceTask,Easy,Green,383,Correct,2014,0
b442537ec3,21,ChoiceTask,Easy,Yellow,700,Correct,2014,0
b442537ec3,22,ChoiceTask,Easy,Green,816,Correct,2014,0
b442537ec3,23,ChoiceTask,Easy,Green,1050,Correct,2014,0
b442537ec3,24,ChoiceTask,Easy,Blue,833,Correct,2014,0
b442537ec3,25,ChoiceTask,Easy,Red,600,Correct,2014,0
b442537ec3,26,ChoiceTask,Easy,Yellow,1733,Correct,2014,0
b442537ec3,27,ChoiceTask,Easy,Green,1383,Correct,2014,0
b442537ec3,28,ChoiceTask,Easy,Yellow,933,Correct,2014,0
b442537ec3,29,ChoiceTask,Easy,Yellow,1000,Correct,2014,0
dc88e49ae4,2,ChoiceTask,Easy,Green,612,Correct,2015,0
dc88e49ae4,2,ChoiceTask,Easy,Green,627,Correct,2015,0
dc88e49ae4,2,ChoiceTask,Easy,Red,553,Correct,2015,0
dc88e49ae4,2,ChoiceTask,Easy,Yellow,556,Correct,2015,0
dc88e49ae4,3,ChoiceTask,Easy,Yellow,639,Correct,2015,0
dc88e49ae4,3,ChoiceTask,Easy,Blue,552,Correct,2015,0
dc88e49ae4,3,ChoiceTask,Easy,Green,585,Correct,2015,0
dc88e49ae4,4,ChoiceTask,Easy,Red,422,Correct,2015,0
dc88e49ae4,4,ChoiceTask,Easy,Yellow,669,Correct,2015,0
dc88e49ae4,4,ChoiceTask,Easy,Yellow,464,Correct,2015,0
dc88e49ae4,4,ChoiceTask,Easy,Blue,540,Correct,2015,0
dc88e49ae4,5,ChoiceTask,Easy,Blue,619,Correct,2015,0
dc88e49ae4,5,ChoiceTask,Easy,Green,551,Correct,2015,0
dc88e49ae4,5,ChoiceTask,Easy,Blue,466,Correct,2015,0
dc88e49ae4,6,ChoiceTask,Easy,Yellow,981,Correct,2015,0
dc88e49ae4,6,ChoiceTask,Easy,Blue,485,Correct,2015,0
dc88e49ae4,6,ChoiceTask,Easy,Green,418,Correct,2015,0
dc88e49ae4,6,ChoiceTask,Easy,Yellow,517,Correct,2015,0
dc88e49ae4,7,ChoiceTask,Easy,Yellow,696,Correct,2015,0
dc88e49ae4,7,ChoiceTask,Easy,Blue,472,Correct,2015,0
dc88e49ae4,7,ChoiceTask,Easy,Red,384,Correct,2015,0
dc88e49ae4,8,ChoiceTask,Easy,Green,626,Correct,2015,0
dc88e49ae4,8,ChoiceTask,Easy,Yellow,585,Correct,2015,0
dc88e49ae4,8,ChoiceTask,Easy,Green,432,Correct,2015,0
dc88e49ae4,8,ChoiceTask,Easy,Red,478,Correct,2015,0
dc88e49ae4,9,ChoiceTask,Easy,Red,591,Correct,2015,0
dc88e49ae4,9,ChoiceTask,Easy,Blue,607,Correct,2015,0
dc88e49ae4,9,ChoiceTask,Easy,Blue,590,Correct,2015,0
dc88e49ae4,9,ChoiceTask,Easy,Red,418,Correct,2015,0
dc88e49ae4,10,ChoiceTask,Easy,Red,517,Correct,2015,0
dc88e49ae4,10,ChoiceTask,Easy,Red,572,Correct,2015,0
dc88e49ae4,10,ChoiceTask,Easy,Yellow,602,Correct,2015,0
dc88e49ae4,10,ChoiceTask,Easy,Blue,584,Correct,2015,0
dc88e49ae4,11,ChoiceTask,Easy,Red,498,Correct,2015,0
dc88e49ae4,11,ChoiceTask,Easy,Blue,607,Correct,2015,0
dc88e49ae4,11,ChoiceTask,Easy,Yellow,870,Correct,2015,0
dc88e49ae4,11,ChoiceTask,Easy,Yellow,619,Correct,2015,0
dc88e49ae4,12,ChoiceTask,Easy,Yellow,784,Correct,2015,0
dc88e49ae4,12,ChoiceTask,Easy,Yellow,853,Correct,2015,0
dc88e49ae4,12,ChoiceTask,Easy,Yellow,418,Correct,2015,0
dc88e49ae4,12,ChoiceTask,Easy,Yellow,912,Correct,2015,0
dc88e49ae4,13,ChoiceTask,Easy,Blue,552,Correct,2015,0
dc88e49ae4,13,ChoiceTask,Easy,Green,857,Correct,2015,0
dc88e49ae4,13,ChoiceTask,Easy,Green,569,Correct,2015,0
dc88e49ae4,13,ChoiceTask,Easy,Yellow,442,Correct,2015,0
dc88e49ae4,14,ChoiceTask,Easy,Green,418,Correct,2015,0
dc88e49ae4,14,ChoiceTask,Easy,Red,533,Correct,2015,0
dc88e49ae4,14,ChoiceTask,Easy,Red,480,Correct,2015,0
dc88e49ae4,14,ChoiceTask,Easy,Blue,541,Correct,2015,0
dc88e49ae4,15,ChoiceTask,Easy,Green,545,Correct,2015,0
dc88e49ae4,15,ChoiceTask,Easy,Red,608,Correct,2015,0
dc88e49ae4,15,ChoiceTask,Easy,Yellow,684,Correct,2015,0
dc88e49ae4,15,ChoiceTask,Easy,Red,535,Correct,2015,0
dc88e49ae4,16,ChoiceTask,Easy,Yellow,769,Correct,2015,0
dc88e49ae4,16,ChoiceTask,Easy,Red,395,Correct,2015,0
dc88e49ae4,16,ChoiceTask,Easy,Red,450,Correct,2015,0
dc88e49ae4,16,ChoiceTask,Easy,Red,535,Correct,2015,0
dc88e49ae4,17,ChoiceTask,Easy,Green,817,Correct,2015,0
dc88e49ae4,17,ChoiceTask,Easy,Red,419,Correct,2015,0
dc88e49ae4,17,ChoiceTask,Easy,Blue,556,Correct,2015,0
dc88e49ae4,18,ChoiceTask,Easy,Blue,619,Correct,2015,0
dc88e49ae4,18,ChoiceTask,Easy,Yellow,758,Correct,2015,0
dc88e49ae4,18,ChoiceTask,Easy,Red,417,Correct,2015,0
dc88e49ae4,18,ChoiceTask,Easy,Green,366,Correct,2015,0
dc88e49ae4,19,ChoiceTask,Easy,Blue,510,Correct,2015,0
dc88e49ae4,19,ChoiceTask,Easy,Blue,635,Correct,2015,0
dc88e49ae4,19,ChoiceTask,Easy,Green,389,Correct,2015,0
dc88e49ae4,20,ChoiceTask,Easy,Red,585,Correct,2015,0
dc88e49ae4,20,ChoiceTask,Easy,Red,576,Correct,2015,0
dc88e49ae4,20,ChoiceTask,Easy,Blue,481,Correct,2015,0
dc88e49ae4,20,ChoiceTask,Easy,Green,384,Correct,2015,0
dc88e49ae4,21,ChoiceTask,Easy,Green,877,Correct,2015,0
dc88e49ae4,21,ChoiceTask,Easy,Red,523,Correct,2015,0
dc88e49ae4,21,ChoiceTask,Easy,Green,572,Correct,2015,0
dc88e49ae4,22,ChoiceTask,Easy,Yellow,852,Correct,2015,0
dc88e49ae4,22,ChoiceTask,Easy,Yellow,593,Correct,2015,0
dc88e49ae4,23,ChoiceTask,Easy,Red,485,Correct,2015,0
dc88e49ae4,23,ChoiceTask,Easy,Blue,607,Correct,2015,0
dc88e49ae4,23,ChoiceTask,Easy,Blue,455,Correct,2015,0
dc88e49ae4,23,ChoiceTask,Easy,Red,521,Correct,2015,0
dc88e49ae4,24,ChoiceTask,Easy,Blue,636,Correct,2015,0
dc88e49ae4,24,ChoiceTask,Easy,Blue,502,Correct,2015,0
dc88e49ae4,24,ChoiceTask,Easy,Red,563,Correct,2015,0
dc88e49ae4,24,ChoiceTask,Easy,Red,434,Correct,2015,0
dc88e49ae4,25,ChoiceTask,Easy,Blue,712,Correct,2015,0
dc88e49ae4,25,ChoiceTask,Easy,Red,515,Correct,2015,0
dc88e49ae4,25,ChoiceTask,Easy,Yellow,709,Correct,2015,0
dc88e49ae4,26,ChoiceTask,Easy,Green,585,Correct,2015,0
dc88e49ae4,26,ChoiceTask,Easy,Yellow,519,Correct,2015,0
dc88e49ae4,26,ChoiceTask,Easy,Yellow,536,Correct,2015,0
dc88e49ae4,26,ChoiceTask,Easy,Green,812,Correct,2015,0
dc88e49ae4,27,ChoiceTask,Easy,Green,525,Correct,2015,0
dc88e49ae4,27,ChoiceTask,Easy,Red,520,Correct,2015,0
dc88e49ae4,27,ChoiceTask,Easy,Green,594,Correct,2015,0
dc88e49ae4,27,ChoiceTask,Easy,Blue,546,Correct,2015,0
dc88e49ae4,28,ChoiceTask,Easy,Red,586,Correct,2015,0
dc88e49ae4,28,ChoiceTask,Easy,Red,587,Correct,2015,0
dc88e49ae4,28,ChoiceTask,Easy,Blue,402,Correct,2015,0
dc88e49ae4,29,ChoiceTask,Easy,Yellow,720,Correct,2015,0
dc88e49ae4,29,ChoiceTask,Easy,Yellow,401,Correct,2015,0
dc88e49ae4,29,ChoiceTask,Easy,Green,677,Correct,2015,0
dc88e49ae4,29,ChoiceTask,Easy,Blue,423,Correct,2015,0
dc88e49ae4,30,ChoiceTask,Easy,Green,838,Correct,2015,0
dc88e49ae4,30,ChoiceTask,Easy,Green,619,Correct,2015,0
dc88e49ae4,30,ChoiceTask,Easy,Yellow,540,Correct,2015,0
dc88e49ae4,31,ChoiceTask,Easy,Green,553,Correct,2015,0
dc88e49ae4,31,ChoiceTask,Easy,Red,720,Correct,2015,0
dc88e49ae4,31,ChoiceTask,Easy,Yellow,562,Correct,2015,0
dc88e49ae4,31,ChoiceTask,Easy,Green,552,Correct,2015,0
dc88e49ae4,32,ChoiceTask,Easy,Yellow,747,Correct,2015,0
dc88e49ae4,32,ChoiceTask,Easy,Green,558,Correct,2015,0
